Timestamp,Accel X,Accel Y,Accel Z,Gyro X,Gyro Y,Gyro Z,Magneto X,Magneto Y,Magneto Z
1747152340.9300547,0.9977159999999999,-0.000488,0.125538,-0.0175,0.14,0.49000000000000005,-0.4650686933645133,-0.005846243788365975,-0.19409529377375037
1747152340.934861,0.997838,-0.001098,0.126148,0.0175,0.10500000000000001,0.6300000000000001,-0.4650686933645133,-0.005846243788365975,-0.19409529377375037
1747152340.9397202,0.997838,0.00061,0.125294,-0.035,0.14,0.6475000000000001,-0.4650686933645133,-0.005846243788365975,-0.19409529377375037
1747152340.9445899,0.999302,0.001464,0.12627,-0.035,0.10500000000000001,0.6300000000000001,-0.4650686933645133,-0.005846243788365975,-0.19409529377375037
1747152340.9494553,0.998448,-0.00122,0.126758,-0.0175,0.14,0.6475000000000001,-0.4650686933645133,-0.005846243788365975,-0.19409529377375037
1747152340.9543316,0.996984,-0.000366,0.127246,0.0,0.15750000000000003,0.6475000000000001,-0.4650686933645133,-0.005846243788365975,-0.19409529377375037
1747152340.9592,0.998814,0.0,0.127124,0.0,0.14,0.6475000000000001,-0.4650686933645133,-0.005846243788365975,-0.19409529377375037
1747152340.9641192,0.998448,-0.000488,0.124806,0.035,0.15750000000000003,0.6475000000000001,-0.4650686933645133,-0.005846243788365975,-0.19409529377375037
1747152340.968968,0.999058,0.0,0.126148,0.035,0.17500000000000002,0.665,-0.4650686933645133,-0.005846243788365975,-0.19409529377375037
1747152340.9738367,0.997472,-0.001098,0.127124,-0.07,0.15750000000000003,0.665,-0.4650686933645133,-0.005846243788365975,-0.19409529377375037
1747152340.9787035,0.99735,0.000122,0.124806,-0.10500000000000001,0.17500000000000002,0.5950000000000001,-0.4650686933645133,-0.0014615609470914938,-0.19263373282665888
1747152340.983607,0.997594,-0.000122,0.127856,-0.17500000000000002,0.2625,0.7175,-0.4650686933645133,-0.0014615609470914938,-0.19263373282665888
1747152340.9884605,0.9964959999999999,0.000244,0.125538,-0.10500000000000001,0.1925,0.6825000000000001,-0.4650686933645133,-0.0014615609470914938,-0.19263373282665888
1747152340.9933279,0.997594,-0.0013419999999999999,0.125294,-0.0175,0.21000000000000002,0.665,-0.4650686933645133,-0.0014615609470914938,-0.19263373282665888
1747152340.9981961,0.997228,0.0,0.127124,-0.10500000000000001,0.24500000000000002,0.665,-0.4650686933645133,-0.0014615609470914938,-0.19263373282665888
1747152341.0030751,0.996984,0.0013419999999999999,0.12566,-0.052500000000000005,0.21000000000000002,0.6125,-0.4650686933645133,-0.0014615609470914938,-0.19263373282665888
1747152341.0079591,0.998814,0.001098,0.125294,-0.08750000000000001,0.17500000000000002,0.6125,-0.4650686933645133,-0.0014615609470914938,-0.19263373282665888
1747152341.012825,0.99796,-0.000366,0.125294,-0.07,0.15750000000000003,0.5950000000000001,-0.4650686933645133,-0.0014615609470914938,-0.19263373282665888
1747152341.0176988,0.998082,-0.000366,0.126148,0.07,0.12250000000000001,0.5950000000000001,-0.4650686933645133,-0.0014615609470914938,-0.19263373282665888
1747152341.02257,0.998814,0.00122,0.127124,0.052500000000000005,0.0,0.56,-0.46389944460684013,0.003215434083601286,-0.19102601578485823
1747152341.0274441,0.996618,-0.0008539999999999999,0.126636,0.052500000000000005,0.08750000000000001,0.665,-0.46389944460684013,0.003215434083601286,-0.19102601578485823
1747152341.0323126,0.995764,-0.031232,0.127246,-0.0175,0.14,0.6300000000000001,-0.46389944460684013,0.003215434083601286,-0.19102601578485823
1747152341.037184,0.996374,0.0,0.127002,0.0175,0.15750000000000003,0.5950000000000001,-0.46389944460684013,0.003215434083601286,-0.19102601578485823
1747152341.0420604,0.99674,-0.000732,0.12627,0.0175,0.08750000000000001,0.6125,-0.46389944460684013,0.003215434083601286,-0.19102601578485823
1747152341.0469363,0.997594,0.00061,0.127124,0.0,0.12250000000000001,0.6125,-0.46389944460684013,0.003215434083601286,-0.19102601578485823
1747152341.0518036,0.9964959999999999,-0.0008539999999999999,0.126392,-0.0175,0.17500000000000002,0.6125,-0.46389944460684013,0.003215434083601286,-0.19102601578485823
1747152341.056692,0.9983259999999999,-0.001098,0.12566,-0.052500000000000005,0.10500000000000001,0.6475000000000001,-0.46389944460684013,0.003215434083601286,-0.19102601578485823
1747152341.0615618,0.996984,0.000244,0.12566,-0.08750000000000001,0.12250000000000001,0.6125,-0.46389944460684013,0.003215434083601286,-0.19102601578485823
1747152341.0664344,0.99796,-0.00061,0.12456199999999999,-0.14,0.24500000000000002,0.665,-0.46389944460684013,0.003215434083601286,-0.19102601578485823
1747152341.0713089,0.99735,-0.000122,0.126636,-0.1925,0.14,0.5950000000000001,-0.45834551300789245,0.0014615609470914938,-0.1997953814674072
1747152341.0761802,0.996984,-0.001464,0.125904,-0.08750000000000001,0.17500000000000002,0.6475000000000001,-0.45834551300789245,0.0014615609470914938,-0.1997953814674072
1747152341.081054,0.996984,-0.002928,0.12566,-0.07,0.21000000000000002,0.6125,-0.45834551300789245,0.0014615609470914938,-0.1997953814674072
1747152341.085928,0.9964959999999999,-0.000976,0.12505,-0.12250000000000001,0.1925,0.6125,-0.45834551300789245,0.0014615609470914938,-0.1997953814674072
1747152341.0908015,0.996008,-0.000122,0.12627,0.0,0.15750000000000003,0.6125,-0.45834551300789245,0.0014615609470914938,-0.1997953814674072
1747152341.0956802,0.998082,0.0008539999999999999,0.125904,0.0175,0.21000000000000002,0.6125,-0.45834551300789245,0.0014615609470914938,-0.1997953814674072
1747152341.1005464,0.9983259999999999,0.00061,0.124928,0.08750000000000001,0.15750000000000003,0.5950000000000001,-0.45834551300789245,0.0014615609470914938,-0.1997953814674072
1747152341.105414,0.996618,-0.000122,0.125294,0.0175,0.10500000000000001,0.5950000000000001,-0.45834551300789245,0.0014615609470914938,-0.1997953814674072
1747152341.110292,0.99613,-0.00122,0.126514,0.052500000000000005,0.15750000000000003,0.665,-0.45834551300789245,0.0014615609470914938,-0.1997953814674072
1747152341.1151664,0.99674,-0.00183,0.124074,0.0175,0.17500000000000002,0.5950000000000001,-0.4606840105232388,0.00467699503069278,-0.19146448406898567
1747152341.1200404,0.9952759999999999,0.0017079999999999999,0.124928,0.08750000000000001,0.07,0.525,-0.4606840105232388,0.00467699503069278,-0.19146448406898567
1747152341.1249309,0.997594,-0.000976,0.124928,-0.052500000000000005,0.17500000000000002,0.6475000000000001,-0.4606840105232388,0.00467699503069278,-0.19146448406898567
1747152341.1365833,0.997594,-0.000488,0.126026,-0.052500000000000005,0.1925,0.5950000000000001,-0.4606840105232388,0.00467699503069278,-0.19146448406898567
1747152341.139534,0.998204,-0.000488,0.12322,-0.052500000000000005,0.17500000000000002,0.5950000000000001,-0.4606840105232388,0.00467699503069278,-0.19146448406898567
1747152341.1444008,0.998082,-0.000488,0.12566,-0.07,0.15750000000000003,0.5775,-0.4606840105232388,0.00467699503069278,-0.19146448406898567
1747152341.1492739,0.998692,-0.00061,0.127246,-0.10500000000000001,0.2625,0.6125,-0.4606840105232388,0.00467699503069278,-0.19146448406898567
1747152341.1541433,0.995764,0.000488,0.12566,-0.052500000000000005,0.17500000000000002,0.5775,-0.4606840105232388,0.00467699503069278,-0.19146448406898567
1747152341.159018,0.9989359999999999,0.0017079999999999999,0.124684,-0.10500000000000001,0.15750000000000003,0.6475000000000001,-0.4606840105232388,0.00467699503069278,-0.19146448406898567
1747152341.1638887,0.996984,0.0,0.126636,-0.07,0.1925,0.5950000000000001,-0.4600993861444022,0.003800058462437884,-0.19000292312189418
1747152341.168768,0.99796,0.000366,0.125172,-0.12250000000000001,0.17500000000000002,0.6125,-0.4600993861444022,0.003800058462437884,-0.19000292312189418
1747152341.173638,0.997838,0.000244,0.127734,-0.10500000000000001,0.21000000000000002,0.6300000000000001,-0.4600993861444022,0.003800058462437884,-0.19000292312189418
1747152341.178551,0.99735,0.000366,0.126026,0.0,0.1925,0.6475000000000001,-0.4600993861444022,0.003800058462437884,-0.19000292312189418
1747152341.1834629,0.996984,0.001952,0.125416,-0.035,0.1925,0.6475000000000001,-0.4600993861444022,0.003800058462437884,-0.19000292312189418
1747152341.1912243,0.9977159999999999,0.000488,0.124806,-0.07,0.15750000000000003,0.665,-0.4600993861444022,0.003800058462437884,-0.19000292312189418
1747152341.194203,0.9971059999999999,0.0013419999999999999,0.125172,-0.07,0.15750000000000003,0.665,-0.4600993861444022,0.003800058462437884,-0.19000292312189418
1747152341.1990757,0.997838,0.000122,0.124806,-0.052500000000000005,0.08750000000000001,0.56,-0.4600993861444022,0.003800058462437884,-0.19000292312189418
1747152341.2039492,0.99674,-0.000488,0.123464,0.0175,0.10500000000000001,0.6300000000000001,-0.4600993861444022,0.003800058462437884,-0.19000292312189418
1747152341.2088451,0.998814,0.000366,0.127734,0.0175,0.1925,0.665,-0.4600993861444022,0.0035077462730195848,-0.19204910844782228
1747152341.213692,0.999668,-0.000366,0.12627,-0.0175,0.08750000000000001,0.6125,-0.46799181525869626,0.0035077462730195848,-0.19204910844782228
1747152341.2185664,0.9983259999999999,-0.001586,0.123708,0.052500000000000005,0.12250000000000001,0.6475000000000001,-0.46799181525869626,0.0035077462730195848,-0.19204910844782228
1747152341.2234378,0.998448,-0.001098,0.125782,-0.10500000000000001,0.14,0.5950000000000001,-0.46799181525869626,0.0035077462730195848,-0.19204910844782228
1747152341.2283113,0.998204,0.0017079999999999999,0.126392,-0.10500000000000001,0.24500000000000002,0.6475000000000001,-0.46799181525869626,0.0035077462730195848,-0.19204910844782228
1747152341.2331862,0.999424,0.000122,0.12566,-0.052500000000000005,0.15750000000000003,0.6300000000000001,-0.46799181525869626,0.0035077462730195848,-0.19204910844782228
1747152341.2380652,0.997594,0.03111,0.126026,-0.10500000000000001,0.1925,0.5950000000000001,-0.46799181525869626,0.0035077462730195848,-0.19204910844782228
1747152341.2452466,0.995764,-0.000488,0.124196,-0.12250000000000001,0.22750000000000004,0.6300000000000001,-0.46799181525869626,0.0035077462730195848,-0.19204910844782228
1747152341.2482176,0.996862,0.0013419999999999999,0.127002,-0.08750000000000001,0.21000000000000002,0.6475000000000001,-0.46799181525869626,0.0035077462730195848,-0.19204910844782228
1747152341.2530904,0.996862,-0.000122,0.12688,0.052500000000000005,0.0175,0.5425000000000001,-0.46799181525869626,0.0035077462730195848,-0.19204910844782228
1747152341.2579653,0.998814,-0.0008539999999999999,0.12566,0.0,0.08750000000000001,0.5775,-0.4668225665010231,0.0005846243788365975,-0.19482607424729612
1747152341.2628381,0.99857,0.000366,0.126148,0.0,0.07,0.5950000000000001,-0.4668225665010231,0.0005846243788365975,-0.19482607424729612
1747152341.267712,0.999058,0.00122,0.125904,-0.08750000000000001,0.17500000000000002,0.665,-0.4668225665010231,0.0005846243788365975,-0.19482607424729612
1747152341.272581,0.9952759999999999,-0.000732,0.125904,-0.07,0.15750000000000003,0.6300000000000001,-0.4668225665010231,0.0005846243788365975,-0.19482607424729612
1747152341.2774549,0.996862,-0.0008539999999999999,0.126148,-0.052500000000000005,0.12250000000000001,0.5775,-0.4668225665010231,0.0005846243788365975,-0.19482607424729612
1747152341.2823262,0.9983259999999999,0.00061,0.12627,-0.035,0.24500000000000002,0.6125,-0.4668225665010231,0.0005846243788365975,-0.19482607424729612
1747152341.287246,0.9983259999999999,-0.000488,0.127124,-0.10500000000000001,0.1925,0.665,-0.4668225665010231,0.0005846243788365975,-0.19482607424729612
1747152341.2921154,0.998448,-0.000488,0.125172,-0.07,0.24500000000000002,0.665,-0.4668225665010231,0.0005846243788365975,-0.19482607424729612
1747152341.3042452,0.997228,-0.00061,0.126026,-0.08750000000000001,0.21000000000000002,0.6125,-0.46039169833382054,0.0029231218941829875,-0.19277988892136802
1747152341.3072376,0.99735,0.000122,0.123464,0.0,0.10500000000000001,0.6125,-0.46039169833382054,0.0029231218941829875,-0.19277988892136802
1747152341.3121102,0.996618,-0.00122,0.127124,-0.12250000000000001,0.2625,0.6475000000000001,-0.46039169833382054,0.0029231218941829875,-0.19277988892136802
1747152341.316976,0.99735,0.000976,0.125172,-0.07,0.17500000000000002,0.6475000000000001,-0.46039169833382054,0.0029231218941829875,-0.19277988892136802
1747152341.321846,0.997472,-0.000488,0.126392,-0.0175,0.12250000000000001,0.6300000000000001,-0.46039169833382054,0.0029231218941829875,-0.19277988892136802
1747152341.3267264,0.997228,0.001586,0.125538,0.0,0.17500000000000002,0.6300000000000001,-0.46039169833382054,0.0029231218941829875,-0.19277988892136802
1747152341.3315961,0.995642,-0.000366,0.126026,0.08750000000000001,0.10500000000000001,0.6300000000000001,-0.46039169833382054,0.0029231218941829875,-0.19277988892136802
1747152341.3364708,0.99735,0.0,0.127002,0.035,0.08750000000000001,0.665,-0.46039169833382054,0.0029231218941829875,-0.19277988892136802
1747152341.341339,0.998448,-0.000122,0.12456199999999999,0.07,0.14,0.6475000000000001,-0.46039169833382054,0.0029231218941829875,-0.19277988892136802
1747152341.34622,0.99735,0.000366,0.124928,0.0175,0.24500000000000002,0.6125,-0.46039169833382054,0.0029231218941829875,-0.19277988892136802
1747152341.3510897,0.995642,-0.00061,0.12383,-0.0175,0.12250000000000001,0.6125,-0.4674071908798597,0.00233849751534639,-0.19175679625840397
1747152341.3589256,0.999424,-0.000366,0.12383,-4.48,0.3325,0.7350000000000001,-0.4674071908798597,0.00233849751534639,-0.19175679625840397
1747152341.3618636,0.99735,0.000244,0.12749,-0.035,0.3325,0.7350000000000001,-0.4674071908798597,0.00233849751534639,-0.19175679625840397
1747152341.3667533,0.99552,-0.000976,0.12688,0.052500000000000005,0.15750000000000003,0.5075000000000001,-0.4674071908798597,0.00233849751534639,-0.19175679625840397
1747152341.3716073,0.9971059999999999,0.0,0.124684,-0.10500000000000001,0.21000000000000002,0.665,-0.4674071908798597,0.00233849751534639,-0.19175679625840397
1747152341.3764782,0.996008,0.000122,0.12456199999999999,-0.1925,0.22750000000000004,0.6300000000000001,-0.4674071908798597,0.00233849751534639,-0.19175679625840397
1747152341.381349,0.996252,0.002074,0.126148,-0.17500000000000002,0.28,0.6475000000000001,-0.4674071908798597,0.00233849751534639,-0.19175679625840397
1747152341.3862236,0.998204,0.000244,0.12444,-0.17500000000000002,0.22750000000000004,0.665,-0.4674071908798597,0.00233849751534639,-0.19175679625840397
1747152341.3910968,0.997472,-0.0013419999999999999,0.124928,-0.24500000000000002,0.24500000000000002,0.6300000000000001,-0.4674071908798597,0.00233849751534639,-0.19175679625840397
1747152341.3959706,0.996618,-0.000488,0.125782,-0.1925,0.24500000000000002,0.6300000000000001,-0.4674071908798597,0.00233849751534639,-0.19175679625840397
1747152341.4008482,0.995642,-0.0017079999999999999,0.126514,-0.14,0.17500000000000002,0.5775,-0.45980707395498394,0.0014615609470914938,-0.19131832797427653
1747152341.4057188,0.997594,-0.000122,0.127368,-0.052500000000000005,0.28,0.6475000000000001,-0.45980707395498394,0.0014615609470914938,-0.19131832797427653
1747152341.4129288,0.99796,0.0,0.125904,-0.035,0.22750000000000004,0.665,-0.45980707395498394,0.0014615609470914938,-0.19131832797427653
1747152341.415828,0.99796,0.000488,0.127368,-0.052500000000000005,0.24500000000000002,0.6825000000000001,-0.45980707395498394,0.0014615609470914938,-0.19131832797427653
1747152341.420705,0.9983259999999999,-0.000976,0.125904,-0.035,0.12250000000000001,0.5950000000000001,-0.45980707395498394,0.0014615609470914938,-0.19131832797427653
1747152341.425572,0.99796,0.0017079999999999999,0.126514,-0.14,0.31500000000000006,0.665,-0.45980707395498394,0.0014615609470914938,-0.19131832797427653
1747152341.4304519,0.99796,0.0017079999999999999,0.127124,-0.12250000000000001,0.22750000000000004,0.6125,-0.45980707395498394,0.0014615609470914938,-0.19131832797427653
1747152341.435321,0.99857,0.000244,0.126636,-0.07,0.10500000000000001,0.56,-0.45980707395498394,0.0014615609470914938,-0.19131832797427653
1747152341.4401972,0.99918,-0.000122,0.124074,-0.08750000000000001,0.21000000000000002,0.6475000000000001,-0.45980707395498394,0.0014615609470914938,-0.19131832797427653
1747152341.4450653,0.9989359999999999,0.0017079999999999999,0.124684,-0.10500000000000001,0.21000000000000002,0.56,-0.46857643963753287,-0.007307804735457469,-0.18971061093247588
1747152341.449941,0.996374,-0.001464,0.125172,-0.07,0.15750000000000003,0.5775,-0.46857643963753287,-0.007307804735457469,-0.18971061093247588
1747152341.45482,0.997472,-0.00183,0.12444,-0.08750000000000001,0.21000000000000002,0.7000000000000001,-0.46857643963753287,-0.007307804735457469,-0.18971061093247588
1747152341.4596915,0.9977159999999999,0.00061,0.12456199999999999,-0.052500000000000005,0.22750000000000004,0.6300000000000001,-0.46857643963753287,-0.007307804735457469,-0.18971061093247588
1747152341.4660137,0.9971059999999999,0.0,0.12627,0.0,0.15750000000000003,0.6300000000000001,-0.46857643963753287,-0.007307804735457469,-0.18971061093247588
1747152341.4694338,0.998448,-0.000488,0.1281,0.0,0.24500000000000002,0.6825000000000001,-0.46857643963753287,-0.007307804735457469,-0.18971061093247588
1747152341.4743485,0.997228,0.000244,0.125782,-0.035,0.07,0.5775,-0.46857643963753287,-0.007307804735457469,-0.18971061093247588
1747152341.479218,0.9995459999999999,-0.002562,0.124684,-0.07,0.07,0.56,-0.46857643963753287,-0.007307804735457469,-0.18971061093247588
1747152341.484094,0.998692,-0.0013419999999999999,0.12688,-0.052500000000000005,0.17500000000000002,0.6475000000000001,-0.46857643963753287,-0.007307804735457469,-0.18971061093247588
1747152341.488966,0.997472,0.000488,0.125538,0.0,0.1925,0.6125,-0.46857643963753287,-0.007307804735457469,-0.18971061093247588
1747152341.4938366,0.997594,-0.000244,0.12395199999999999,-0.0175,0.052500000000000005,0.525,-0.464776381175095,-0.001169248757673195,-0.19409529377375037
1747152341.4987128,0.99735,0.000976,0.126148,-0.035,0.10500000000000001,0.5775,-0.464776381175095,-0.001169248757673195,-0.19409529377375037
1747152341.5035849,0.997594,-0.000122,0.125538,0.035,0.2625,0.6475000000000001,-0.464776381175095,-0.001169248757673195,-0.19409529377375037
1747152341.5084565,1.000766,-0.001098,0.12627,0.052500000000000005,0.15750000000000003,0.6825000000000001,-0.464776381175095,-0.001169248757673195,-0.19409529377375037
1747152341.5133278,0.999058,-0.000732,0.126026,-0.07,0.22750000000000004,0.6300000000000001,-0.464776381175095,-0.001169248757673195,-0.19409529377375037
1747152341.5193477,0.9971059999999999,-0.000488,0.127978,-0.0175,0.22750000000000004,0.665,-0.464776381175095,-0.001169248757673195,-0.19409529377375037
1747152341.523103,0.9971059999999999,-0.000488,0.126514,-0.08750000000000001,0.14,0.6125,-0.464776381175095,-0.001169248757673195,-0.19409529377375037
1747152341.5279777,0.999424,-0.000244,0.125538,-0.0175,0.12250000000000001,0.6300000000000001,-0.464776381175095,-0.001169248757673195,-0.19409529377375037
1747152341.532843,0.995642,0.000122,0.125294,0.07,0.14,0.6300000000000001,-0.464776381175095,-0.001169248757673195,-0.19409529377375037
1747152341.537715,0.99674,-0.002074,0.123708,0.07,0.052500000000000005,0.6300000000000001,-0.4650686933645133,-0.0043846828412744815,-0.1968722595732242
1747152341.5425923,0.9977159999999999,0.000366,0.126392,0.0175,0.08750000000000001,0.665,-0.4650686933645133,-0.0043846828412744815,-0.1968722595732242
1747152341.5474694,0.998204,0.000488,0.127856,0.0,0.15750000000000003,0.6825000000000001,-0.4650686933645133,-0.0043846828412744815,-0.1968722595732242
1747152341.5523376,0.9971059999999999,-0.000366,0.12627,0.035,0.07,0.6125,-0.4650686933645133,-0.0043846828412744815,-0.1968722595732242
1747152341.5572095,0.99918,-0.001098,0.125172,-0.035,0.14,0.6300000000000001,-0.4650686933645133,-0.0043846828412744815,-0.1968722595732242
1747152341.5620859,0.997838,-0.000732,0.125416,0.0,0.15750000000000003,0.5950000000000001,-0.4650686933645133,-0.0043846828412744815,-0.1968722595732242
1747152341.5669656,0.99857,0.000244,0.124684,-0.12250000000000001,0.2625,0.6475000000000001,-0.4650686933645133,-0.0043846828412744815,-0.1968722595732242
1747152341.5727859,0.998692,0.000976,0.127002,-0.08750000000000001,0.28,0.5775,-0.4650686933645133,-0.0043846828412744815,-0.1968722595732242
1747152341.5767705,0.998448,-0.0008539999999999999,0.12505,-0.052500000000000005,0.24500000000000002,0.5775,-0.4650686933645133,-0.0043846828412744815,-0.1968722595732242
1747152341.5816455,0.997228,-0.00061,0.126392,0.0,0.12250000000000001,0.6125,-0.4650686933645133,-0.0043846828412744815,-0.1968722595732242
1747152341.5865185,0.997228,0.00061,0.125782,-0.10500000000000001,0.1925,0.5950000000000001,-0.4600993861444022,-0.0040923706518561824,-0.19321835720549546
1747152341.5913904,0.99735,0.00061,0.127734,-0.035,0.12250000000000001,0.5775,-0.4600993861444022,-0.0040923706518561824,-0.19321835720549546
1747152341.5962553,0.995642,0.000122,0.127002,0.052500000000000005,0.24500000000000002,0.7000000000000001,-0.4600993861444022,-0.0040923706518561824,-0.19321835720549546
1747152341.6011338,0.99735,-0.00183,0.127002,0.052500000000000005,0.17500000000000002,0.5950000000000001,-0.4600993861444022,-0.0040923706518561824,-0.19321835720549546
1747152341.6060042,0.996862,0.000976,0.12566,0.0175,0.15750000000000003,0.5775,-0.4600993861444022,-0.0040923706518561824,-0.19321835720549546
1747152341.6108794,0.99796,-0.00122,0.12566,-0.0175,0.14,0.6475000000000001,-0.4600993861444022,-0.0040923706518561824,-0.19321835720549546
1747152341.615754,0.996252,0.000244,0.12627,0.035,0.12250000000000001,0.665,-0.4600993861444022,-0.0040923706518561824,-0.19321835720549546
1747152341.6206312,0.99735,0.0008539999999999999,0.126514,0.0175,0.17500000000000002,0.6475000000000001,-0.4600993861444022,-0.0040923706518561824,-0.19321835720549546
1747152341.6264575,0.9977159999999999,-0.00183,0.12505,-0.052500000000000005,0.15750000000000003,0.7000000000000001,-0.4600993861444022,-0.0040923706518561824,-0.19321835720549546
1747152341.6303756,0.9977159999999999,-0.00183,0.12505,0.0175,0.14,0.5950000000000001,-0.4600993861444022,-0.0040923706518561824,-0.19321835720549546
1747152341.6352468,0.99674,-0.000976,0.126392,-0.0175,0.052500000000000005,0.6300000000000001,-0.4662379421221865,0.008184741303712365,-0.19248757673194972
1747152341.6401403,0.99796,0.030622,0.124806,-0.15750000000000003,0.2625,0.6300000000000001,-0.4662379421221865,0.008184741303712365,-0.19248757673194972
1747152341.6449943,0.99613,-0.001586,0.123464,-0.08750000000000001,0.24500000000000002,0.6475000000000001,-0.4662379421221865,0.008184741303712365,-0.19248757673194972
1747152341.649863,0.99796,-0.000366,0.125538,-0.10500000000000001,0.24500000000000002,0.6300000000000001,-0.4662379421221865,0.008184741303712365,-0.19248757673194972
1747152341.654736,0.9964959999999999,0.0,0.124318,-0.15750000000000003,0.1925,0.6300000000000001,-0.4662379421221865,0.008184741303712365,-0.19248757673194972
1747152341.6596231,0.99674,-0.000488,0.125172,-0.12250000000000001,0.24500000000000002,0.6300000000000001,-0.4662379421221865,0.008184741303712365,-0.19248757673194972
1747152341.6644845,0.99735,0.001586,0.125904,-0.12250000000000001,0.24500000000000002,0.6125,-0.4662379421221865,0.008184741303712365,-0.19248757673194972
1747152341.6693525,0.99674,-0.000244,0.125782,-0.0175,0.14,0.6125,-0.4662379421221865,0.008184741303712365,-0.19248757673194972
1747152341.674237,0.99613,-0.000732,0.123708,0.035,0.21000000000000002,0.6300000000000001,-0.4662379421221865,0.008184741303712365,-0.19248757673194972
1747152341.6800623,0.995398,-0.001464,0.12688,0.07,0.10500000000000001,0.5950000000000001,-0.4653610055539316,-0.005846243788365975,-0.19321835720549546
1747152341.683978,0.996252,-0.0008539999999999999,0.127124,-0.035,0.07,0.5425000000000001,-0.4653610055539316,-0.005846243788365975,-0.19321835720549546
1747152341.6888466,0.997594,-0.000244,0.12395199999999999,-0.035,0.22750000000000004,0.6125,-0.4653610055539316,-0.005846243788365975,-0.19321835720549546
1747152341.69372,0.996374,0.000366,0.125416,0.0175,0.15750000000000003,0.6125,-0.4653610055539316,-0.005846243788365975,-0.19321835720549546
1747152341.6985903,0.9958859999999999,0.000122,0.125904,0.0175,0.14,0.5950000000000001,-0.4653610055539316,-0.005846243788365975,-0.19321835720549546
1747152341.703467,0.9983259999999999,-0.000366,0.126758,0.035,0.15750000000000003,0.665,-0.4653610055539316,-0.005846243788365975,-0.19321835720549546
1747152341.7083328,0.997228,-0.00061,0.12505,0.035,0.08750000000000001,0.6475000000000001,-0.4653610055539316,-0.005846243788365975,-0.19321835720549546
1747152341.7132094,0.99857,0.000488,0.126392,-0.0175,0.1925,0.7000000000000001,-0.4653610055539316,-0.005846243788365975,-0.19321835720549546
1747152341.7180853,0.99613,-0.00122,0.126148,-0.035,0.17500000000000002,0.6475000000000001,-0.4653610055539316,-0.005846243788365975,-0.19321835720549546
1747152341.7229674,0.996862,-0.0008539999999999999,0.125294,-0.035,0.15750000000000003,0.665,-0.4653610055539316,-0.005846243788365975,-0.19321835720549546
1747152341.727847,0.998204,0.000244,0.12566,-0.08750000000000001,0.17500000000000002,0.6125,-0.4644840689856767,0.002630809704764689,-0.19438760596316867
1747152341.73369,0.996862,0.000732,0.126636,-0.10500000000000001,0.31500000000000006,0.6825000000000001,-0.4644840689856767,0.002630809704764689,-0.19438760596316867
1747152341.737584,0.996862,0.000732,0.126636,-0.10500000000000001,0.21000000000000002,0.5775,-0.4644840689856767,0.002630809704764689,-0.19438760596316867
1747152341.7424548,0.997228,0.000122,0.125416,-0.07,0.21000000000000002,0.6475000000000001,-0.4644840689856767,0.002630809704764689,-0.19438760596316867
1747152341.747331,0.99796,-0.00183,0.12627,-0.07,0.24500000000000002,0.665,-0.4644840689856767,0.002630809704764689,-0.19438760596316867
1747152341.7521987,0.99735,0.0,0.12688,-0.052500000000000005,0.21000000000000002,0.6825000000000001,-0.4644840689856767,0.002630809704764689,-0.19438760596316867
1747152341.7570753,0.997594,0.030134,0.127978,-0.052500000000000005,0.1925,0.6475000000000001,-0.4644840689856767,0.002630809704764689,-0.19438760596316867
1747152341.7619498,0.997472,0.0013419999999999999,0.127246,-0.052500000000000005,0.12250000000000001,0.6825000000000001,-0.4644840689856767,0.002630809704764689,-0.19438760596316867
1747152341.7668211,0.996252,-0.000366,0.12566,-0.035,0.15750000000000003,0.6475000000000001,-0.4644840689856767,0.002630809704764689,-0.19438760596316867
1747152341.771697,0.998204,-0.000244,0.127612,0.052500000000000005,0.12250000000000001,0.6125,-0.45980707395498394,0.001169248757673195,-0.188833674364221
1747152341.7765768,0.996984,-0.001098,0.126514,0.035,0.0,0.56,-0.45980707395498394,0.001169248757673195,-0.188833674364221
1747152341.7814474,0.996862,0.0013419999999999999,0.124806,-0.052500000000000005,0.12250000000000001,0.6825000000000001,-0.45980707395498394,0.001169248757673195,-0.188833674364221
1747152341.7872806,0.996252,-0.000366,0.125782,-0.08750000000000001,0.12250000000000001,0.6125,-0.45980707395498394,0.001169248757673195,-0.188833674364221
1747152341.79119,0.996618,0.002196,0.126514,-0.052500000000000005,0.17500000000000002,0.665,-0.45980707395498394,0.001169248757673195,-0.188833674364221
1747152341.796065,0.99796,0.000122,0.124806,-0.035,0.052500000000000005,0.56,-0.45980707395498394,0.001169248757673195,-0.188833674364221
1747152341.8009312,0.997594,-0.00061,0.125416,-0.12250000000000001,0.1925,0.665,-0.45980707395498394,0.001169248757673195,-0.188833674364221
1747152341.8058538,0.9971059999999999,-0.000976,0.12688,-0.14,0.21000000000000002,0.6300000000000001,-0.45980707395498394,0.001169248757673195,-0.188833674364221
1747152341.8107216,0.997228,-0.000122,0.124928,-0.12250000000000001,0.17500000000000002,0.56,-0.45980707395498394,0.001169248757673195,-0.188833674364221
1747152341.8155985,0.997594,-0.000122,0.125782,-0.052500000000000005,0.22750000000000004,0.5950000000000001,-0.45980707395498394,0.001169248757673195,-0.188833674364221
1747152341.8204665,0.996374,0.000732,0.127002,-0.12250000000000001,0.28,0.5775,-0.4694533762057878,-0.008477053493130663,-0.18781058170125695
1747152341.8253376,0.996008,-0.000976,0.124806,-0.15750000000000003,0.15750000000000003,0.5775,-0.4694533762057878,-0.008477053493130663,-0.18781058170125695
1747152341.8302174,0.997838,-0.001464,0.125294,-0.10500000000000001,0.22750000000000004,0.665,-0.4694533762057878,-0.008477053493130663,-0.18781058170125695
1747152341.8350968,0.9977159999999999,0.0008539999999999999,0.125172,-0.12250000000000001,0.1925,0.5950000000000001,-0.4694533762057878,-0.008477053493130663,-0.18781058170125695
1747152341.8409245,0.9971059999999999,-0.000366,0.12566,-0.17500000000000002,0.17500000000000002,0.7175,-0.4694533762057878,-0.008477053493130663,-0.18781058170125695
1747152341.8448362,0.9971059999999999,-0.000976,0.125904,-0.17500000000000002,0.17500000000000002,0.7175,-0.4694533762057878,-0.008477053493130663,-0.18781058170125695
1747152341.84971,0.99735,-0.000244,0.127368,-0.08750000000000001,0.22750000000000004,0.6125,-0.4694533762057878,-0.008477053493130663,-0.18781058170125695
1747152341.8546047,0.9983259999999999,-0.000976,0.12566,-0.052500000000000005,0.15750000000000003,0.6300000000000001,-0.4694533762057878,-0.008477053493130663,-0.18781058170125695
1747152341.8594573,0.99796,-0.000976,0.127124,-0.035,0.14,0.665,-0.4694533762057878,-0.008477053493130663,-0.18781058170125695
1747152341.8643267,0.999912,0.000244,0.12505,0.035,0.15750000000000003,0.5425000000000001,-0.4694533762057878,-0.008477053493130663,-0.18781058170125695
1747152341.8691993,0.997838,-0.00122,0.126148,0.0,0.07,0.5950000000000001,-0.45980707395498394,-0.001169248757673195,-0.19526454253142356
1747152341.874072,0.998814,-0.000976,0.12395199999999999,0.0,0.24500000000000002,0.7525000000000001,-0.45980707395498394,-0.001169248757673195,-0.19526454253142356
1747152341.878949,0.996374,-0.000366,0.125294,-0.0175,0.22750000000000004,0.6475000000000001,-0.45980707395498394,-0.001169248757673195,-0.19526454253142356
1747152341.8838165,0.997594,0.0,0.126392,0.0,0.15750000000000003,0.665,-0.45980707395498394,-0.001169248757673195,-0.19526454253142356
1747152341.8887024,0.9971059999999999,-0.001098,0.126636,0.035,0.10500000000000001,0.6125,-0.45980707395498394,-0.001169248757673195,-0.19526454253142356
1747152341.8944743,0.997838,-0.000976,0.12688,0.0175,0.12250000000000001,0.6300000000000001,-0.45980707395498394,-0.001169248757673195,-0.19526454253142356
1747152341.898454,0.997594,0.000244,0.126148,-0.052500000000000005,0.15750000000000003,0.6300000000000001,-0.45980707395498394,-0.001169248757673195,-0.19526454253142356
1747152341.9033303,0.99674,-0.0017079999999999999,0.12566,-0.07,0.08750000000000001,0.5950000000000001,-0.45980707395498394,-0.001169248757673195,-0.19526454253142356
1747152341.9082034,0.996374,0.000366,0.124928,-0.14,0.21000000000000002,0.6475000000000001,-0.45980707395498394,-0.001169248757673195,-0.19526454253142356
1747152341.9130762,0.996252,0.000488,0.126148,-0.10500000000000001,0.15750000000000003,0.5775,-0.4656533177433499,-0.005846243788365975,-0.19073370359543992
1747152341.9179556,0.998814,0.0,0.12566,-0.035,0.0,0.56,-0.4656533177433499,-0.005846243788365975,-0.19073370359543992
1747152341.922825,0.997472,0.000122,0.125294,0.0,0.10500000000000001,0.6475000000000001,-0.4656533177433499,-0.005846243788365975,-0.19073370359543992
1747152341.9277022,0.996008,-0.0013419999999999999,0.12505,0.052500000000000005,0.12250000000000001,0.56,-0.4656533177433499,-0.005846243788365975,-0.19073370359543992
1747152341.9325736,0.9977159999999999,-0.000732,0.124074,0.0175,0.15750000000000003,0.5775,-0.4656533177433499,-0.005846243788365975,-0.19073370359543992
1747152341.9374502,0.998814,-0.000488,0.126758,-0.052500000000000005,0.21000000000000002,0.6125,-0.4656533177433499,-0.005846243788365975,-0.19073370359543992
1747152341.9423277,0.997838,-0.000488,0.126636,-0.0175,0.24500000000000002,0.6300000000000001,-0.4656533177433499,-0.005846243788365975,-0.19073370359543992
1747152341.9479198,0.9977159999999999,-0.000732,0.12261,-0.035,0.24500000000000002,0.665,-0.4656533177433499,-0.005846243788365975,-0.19073370359543992
1747152341.9520779,0.9958859999999999,-0.000366,0.12456199999999999,-0.07,0.24500000000000002,0.665,-0.4656533177433499,-0.005846243788365975,-0.19073370359543992
1747152341.9569468,0.99674,0.0008539999999999999,0.125782,-0.035,0.24500000000000002,0.6475000000000001,-0.4656533177433499,-0.005846243788365975,-0.19073370359543992
1747152341.9618235,0.996984,0.00061,0.124928,-0.08750000000000001,0.1925,0.56,-0.4723764980999708,0.00029231218941829873,-0.19146448406898567
1747152341.9666996,0.99674,-0.00122,0.12566,-0.15750000000000003,0.21000000000000002,0.6475000000000001,-0.4723764980999708,0.00029231218941829873,-0.19146448406898567
1747152341.9715872,0.99735,-0.000488,0.12322,0.0,0.12250000000000001,0.5775,-0.4723764980999708,0.00029231218941829873,-0.19146448406898567
1747152341.9764488,0.9971059999999999,0.000366,0.124684,0.0,0.0,0.5775,-0.4723764980999708,0.00029231218941829873,-0.19146448406898567
1747152341.9813302,0.996252,-0.000366,0.12505,0.0175,0.08750000000000001,0.7000000000000001,-0.4723764980999708,0.00029231218941829873,-0.19146448406898567
1747152341.986202,0.99674,0.00183,0.126636,-0.035,0.12250000000000001,0.7000000000000001,-0.4723764980999708,0.00029231218941829873,-0.19146448406898567
1747152341.9910774,0.998204,0.0,0.12566,-0.07,0.14,0.7000000000000001,-0.4723764980999708,0.00029231218941829873,-0.19146448406898567
1747152341.9959626,0.996252,-0.000732,0.125172,-0.10500000000000001,0.21000000000000002,0.665,-0.4723764980999708,0.00029231218941829873,-0.19146448406898567
1747152342.0015533,0.99796,-0.00183,0.125416,-0.12250000000000001,0.21000000000000002,0.6125,-0.4723764980999708,0.00029231218941829873,-0.19146448406898567
1747152342.0056975,0.998448,0.000366,0.12456199999999999,-0.07,0.17500000000000002,0.6125,-0.4723764980999708,-0.003215434083601286,-0.19131832797427653
1747152342.0105631,0.996008,-0.000732,0.124196,-0.15750000000000003,0.052500000000000005,0.45500000000000007,-0.4600993861444022,-0.003215434083601286,-0.19131832797427653
1747152342.0154395,0.999302,-0.000122,0.125172,-0.15750000000000003,0.3325,0.7350000000000001,-0.4600993861444022,-0.003215434083601286,-0.19131832797427653
1747152342.0203102,0.999058,0.000244,0.124928,-0.1925,0.31500000000000006,0.6125,-0.4600993861444022,-0.003215434083601286,-0.19131832797427653
1747152342.0251827,0.996374,-0.00122,0.12505,-0.1925,0.24500000000000002,0.5775,-0.4600993861444022,-0.003215434083601286,-0.19131832797427653
1747152342.0300558,0.99735,0.000976,0.12688,-0.15750000000000003,0.22750000000000004,0.6300000000000001,-0.4600993861444022,-0.003215434083601286,-0.19131832797427653
1747152342.0349307,0.9964959999999999,0.000488,0.12627,-0.10500000000000001,0.2625,0.5950000000000001,-0.4600993861444022,-0.003215434083601286,-0.19131832797427653
1747152342.0398002,0.996252,0.0,0.124196,-0.052500000000000005,0.22750000000000004,0.5775,-0.4600993861444022,-0.003215434083601286,-0.19131832797427653
1747152342.0446715,0.995398,0.000732,0.12688,-0.12250000000000001,0.1925,0.6125,-0.4600993861444022,-0.003215434083601286,-0.19131832797427653
1747152342.04955,0.997472,-0.000488,0.124318,-0.07,0.12250000000000001,0.5775,-0.4600993861444022,-0.003215434083601286,-0.19131832797427653
1747152342.0551386,0.99674,0.0,0.125172,-0.035,0.1925,0.5950000000000001,-0.467699503069278,0.0014615609470914938,-0.18693364513300204
1747152342.0593,0.996008,0.000244,0.127978,-0.07,0.12250000000000001,0.56,-0.467699503069278,0.0014615609470914938,-0.18693364513300204
1747152342.0641654,0.997472,-0.00122,0.126636,-0.10500000000000001,0.15750000000000003,0.7000000000000001,-0.467699503069278,0.0014615609470914938,-0.18693364513300204
1747152342.0690372,0.99918,0.000244,0.126514,0.0175,0.07,0.665,-0.467699503069278,0.0014615609470914938,-0.18693364513300204
1747152342.073907,0.9971059999999999,-0.001586,0.126758,0.052500000000000005,0.035,0.6300000000000001,-0.467699503069278,0.0014615609470914938,-0.18693364513300204
1747152342.078783,0.998204,-0.000122,0.126392,0.0,0.12250000000000001,0.6300000000000001,-0.467699503069278,0.0014615609470914938,-0.18693364513300204
1747152342.0836542,0.997472,-0.000976,0.122976,0.07,0.10500000000000001,0.6125,-0.467699503069278,0.0014615609470914938,-0.18693364513300204
1747152342.0885212,0.997838,0.0,0.124806,-0.0175,0.12250000000000001,0.5775,-0.467699503069278,0.0014615609470914938,-0.18693364513300204
1747152342.0933957,0.997838,-0.0008539999999999999,0.127002,0.035,0.15750000000000003,0.6475000000000001,-0.467699503069278,0.0014615609470914938,-0.18693364513300204
1747152342.0982683,0.9971059999999999,-0.000976,0.125782,-0.0175,0.21000000000000002,0.6125,-0.467699503069278,0.0014615609470914938,-0.18693364513300204
1747152342.1031506,0.9964959999999999,-0.002074,0.125172,-0.035,0.1925,0.49000000000000005,-0.4621455714703303,-0.0008769365682548962,-0.18722595732242034
1747152342.1087396,0.996984,-0.000976,0.125172,-0.07,0.35000000000000003,0.7175,-0.4621455714703303,-0.0008769365682548962,-0.18722595732242034
1747152342.1128879,0.996374,0.000488,0.12566,-0.035,0.22750000000000004,0.6475000000000001,-0.4621455714703303,-0.0008769365682548962,-0.18722595732242034
1747152342.1177583,0.99674,-0.000366,0.127856,-0.12250000000000001,0.2625,0.6300000000000001,-0.4621455714703303,-0.0008769365682548962,-0.18722595732242034
1747152342.122631,0.997228,-0.000366,0.125904,-0.12250000000000001,0.2625,0.6125,-0.4621455714703303,-0.0008769365682548962,-0.18722595732242034
1747152342.1275036,0.996862,0.0,0.127978,-0.15750000000000003,0.24500000000000002,0.6300000000000001,-0.4621455714703303,-0.0008769365682548962,-0.18722595732242034
1747152342.1323745,0.997472,-0.00183,0.126514,-0.10500000000000001,0.29750000000000004,0.6475000000000001,-0.4621455714703303,-0.0008769365682548962,-0.18722595732242034
1747152342.137247,0.99857,0.000732,0.126636,-0.14,0.17500000000000002,0.6300000000000001,-0.4621455714703303,-0.0008769365682548962,-0.18722595732242034
1747152342.1421216,0.9989359999999999,-0.000488,0.127246,-0.14,0.21000000000000002,0.6825000000000001,-0.4621455714703303,-0.0008769365682548962,-0.18722595732242034
1747152342.1469932,0.997472,-0.000488,0.12505,-0.12250000000000001,0.14,0.6475000000000001,-0.46185325928091203,-0.007307804735457469,-0.19131832797427653
1747152342.1518652,0.997594,-0.00183,0.125416,-0.14,0.052500000000000005,0.525,-0.46185325928091203,-0.007307804735457469,-0.19131832797427653
1747152342.156739,0.996618,-0.0017079999999999999,0.12688,-0.10500000000000001,0.31500000000000006,0.7350000000000001,-0.46185325928091203,-0.007307804735457469,-0.19131832797427653
1747152342.1623275,0.998692,-0.001952,0.12627,-0.035,0.2625,0.6125,-0.46185325928091203,-0.007307804735457469,-0.19131832797427653
1747152342.1664817,0.99674,0.001464,0.12456199999999999,-0.14,0.22750000000000004,0.6475000000000001,-0.46185325928091203,-0.007307804735457469,-0.19131832797427653
1747152342.171356,0.99857,0.000732,0.125172,-0.12250000000000001,0.22750000000000004,0.6475000000000001,-0.46185325928091203,-0.007307804735457469,-0.19131832797427653
1747152342.176227,0.99796,0.000122,0.124928,-0.10500000000000001,0.17500000000000002,0.6125,-0.46185325928091203,-0.007307804735457469,-0.19131832797427653
1747152342.1811,0.996374,-0.0013419999999999999,0.125782,-0.052500000000000005,0.22750000000000004,0.665,-0.46185325928091203,-0.007307804735457469,-0.19131832797427653
1747152342.1859715,0.9964959999999999,0.000366,0.12456199999999999,-0.07,0.21000000000000002,0.6300000000000001,-0.46185325928091203,-0.007307804735457469,-0.19131832797427653
1747152342.190844,0.996862,0.000732,0.12627,-0.0175,0.21000000000000002,0.6300000000000001,-0.46185325928091203,-0.007307804735457469,-0.19131832797427653
1747152342.1957157,0.996984,-0.00061,0.123586,-0.035,0.07,0.5425000000000001,-0.4665302543116048,0.007600116924875768,-0.19234142063724058
1747152342.2005847,0.996618,-0.000732,0.126392,0.035,0.17500000000000002,0.6475000000000001,-0.4665302543116048,0.007600116924875768,-0.19234142063724058
1747152342.2054574,0.9971059999999999,-0.000488,0.126148,0.0175,0.10500000000000001,0.5950000000000001,-0.4665302543116048,0.007600116924875768,-0.19234142063724058
1747152342.2103314,0.996374,-0.000244,0.155306,0.07,0.17500000000000002,0.5950000000000001,-0.4665302543116048,0.007600116924875768,-0.19234142063724058
1747152342.2159424,0.99918,0.000366,0.12505,0.07,0.15750000000000003,0.5775,-0.4665302543116048,0.007600116924875768,-0.19234142063724058
1747152342.2200768,0.99918,0.000732,0.12566,-0.0175,0.21000000000000002,0.56,-0.4665302543116048,0.007600116924875768,-0.19234142063724058
1747152342.2249436,0.998814,0.000488,0.124684,-0.035,0.15750000000000003,0.6125,-0.4665302543116048,0.007600116924875768,-0.19234142063724058
1747152342.229818,0.9958859999999999,-0.000732,0.124928,0.035,0.1925,0.6125,-0.4665302543116048,0.007600116924875768,-0.19234142063724058
1747152342.2346933,0.99857,0.000244,0.125294,-0.035,0.1925,0.6300000000000001,-0.4665302543116048,0.007600116924875768,-0.19234142063724058
1747152342.2395635,0.99674,0.0013419999999999999,0.125294,-0.12250000000000001,0.21000000000000002,0.6300000000000001,-0.4665302543116048,0.007600116924875768,-0.19234142063724058
1747152342.244436,0.99796,-0.000244,0.126148,-0.12250000000000001,0.12250000000000001,0.56,-0.4580532008184741,-0.003800058462437884,-0.19511838643671442
1747152342.249306,0.9964959999999999,-0.000244,0.125538,-0.10500000000000001,0.22750000000000004,0.665,-0.4580532008184741,-0.003800058462437884,-0.19511838643671442
1747152342.254179,0.9971059999999999,-0.0008539999999999999,0.127124,-0.08750000000000001,0.21000000000000002,0.5775,-0.4580532008184741,-0.003800058462437884,-0.19511838643671442
1747152342.259055,0.9964959999999999,-0.001098,0.125538,-0.07,0.24500000000000002,0.665,-0.4580532008184741,-0.003800058462437884,-0.19511838643671442
1747152342.263929,0.99674,0.000976,0.12566,-0.14,0.22750000000000004,0.6475000000000001,-0.4580532008184741,-0.003800058462437884,-0.19511838643671442
1747152342.2754073,0.997594,-0.000244,0.125294,-0.12250000000000001,0.22750000000000004,0.6475000000000001,-0.4580532008184741,-0.003800058462437884,-0.19511838643671442
1747152342.2783632,0.9989359999999999,0.000366,0.12688,-0.0175,0.17500000000000002,0.5950000000000001,-0.4580532008184741,-0.003800058462437884,-0.19511838643671442
1747152342.2832353,0.997228,-0.00061,0.125294,0.0,0.08750000000000001,0.56,-0.4580532008184741,-0.003800058462437884,-0.19511838643671442
1747152342.288114,0.99857,-0.000488,0.126514,0.0,0.07,0.5775,-0.4586378251973107,-0.002630809704764689,-0.19482607424729612
1747152342.2929764,0.996374,-0.000122,0.12383,0.10500000000000001,0.0,0.5075000000000001,-0.4586378251973107,-0.002630809704764689,-0.19482607424729612
1747152342.2978516,0.998692,0.001464,0.12688,-0.0175,0.1925,0.6300000000000001,-0.4586378251973107,-0.002630809704764689,-0.19482607424729612
1747152342.302723,0.997472,-0.000488,0.123464,0.035,0.17500000000000002,0.5950000000000001,-0.4586378251973107,-0.002630809704764689,-0.19482607424729612
1747152342.3075943,0.9971059999999999,0.00122,0.12505,0.052500000000000005,0.22750000000000004,0.6125,-0.4586378251973107,-0.002630809704764689,-0.19482607424729612
1747152342.312468,0.9971059999999999,0.000732,0.123708,0.0,0.17500000000000002,0.6300000000000001,-0.4586378251973107,-0.002630809704764689,-0.19482607424729612
1747152342.31734,0.998448,0.000366,0.125416,-0.035,0.22750000000000004,0.6300000000000001,-0.4586378251973107,-0.002630809704764689,-0.19482607424729612
1747152342.3222094,0.99735,0.000488,0.126514,0.035,0.21000000000000002,0.6475000000000001,-0.4586378251973107,-0.002630809704764689,-0.19482607424729612
1747152342.3300292,0.994788,0.00061,0.125538,-0.07,0.21000000000000002,0.56,-0.4586378251973107,-0.002630809704764689,-0.19482607424729612
1747152342.3328924,0.996984,0.0008539999999999999,0.124684,-0.07,0.24500000000000002,0.665,-0.4586378251973107,-0.002630809704764689,-0.19482607424729612
1747152342.3377633,0.996252,0.000244,0.126392,-0.12250000000000001,0.052500000000000005,0.56,-0.4586378251973107,-0.0017538731365097924,-0.18810289389067525
1747152342.3426344,0.996984,-0.000732,0.124928,-0.15750000000000003,0.22750000000000004,0.7525000000000001,-0.4586378251973107,-0.0017538731365097924,-0.18810289389067525
1747152342.347508,0.997228,-0.000488,0.125904,-0.14,0.22750000000000004,0.6300000000000001,-0.4586378251973107,-0.0017538731365097924,-0.18810289389067525
1747152342.352377,0.998448,-0.00122,0.124806,-0.1925,0.21000000000000002,0.665,-0.4586378251973107,-0.0017538731365097924,-0.18810289389067525
1747152342.3572485,0.995642,-0.001098,0.12444,-0.12250000000000001,0.14,0.6300000000000001,-0.4586378251973107,-0.0017538731365097924,-0.18810289389067525
1747152342.3621223,0.998082,-0.001098,0.125538,-0.12250000000000001,0.14,0.6475000000000001,-0.4586378251973107,-0.0017538731365097924,-0.18810289389067525
1747152342.3669941,1.000278,0.001098,0.125294,-0.17500000000000002,0.17500000000000002,0.6125,-0.4586378251973107,-0.0017538731365097924,-0.18810289389067525
1747152342.371871,0.999424,-0.000976,0.126026,-0.15750000000000003,0.1925,0.5950000000000001,-0.4586378251973107,-0.0017538731365097924,-0.18810289389067525
1747152342.376744,0.999302,-0.000976,0.123586,-0.07,0.22750000000000004,0.6475000000000001,-0.4586378251973107,-0.0017538731365097924,-0.18810289389067525
1747152342.3839834,0.99796,-0.0026839999999999998,0.123586,-0.07,0.14,0.49000000000000005,-0.4671148786904414,-0.001169248757673195,-0.19102601578485823
1747152342.3869092,0.99796,-0.0026839999999999998,0.123586,-0.07,0.14,0.49000000000000005,-0.4671148786904414,-0.001169248757673195,-0.19102601578485823
1747152342.3917835,0.99613,0.0008539999999999999,0.125782,-0.10500000000000001,0.35000000000000003,0.6475000000000001,-0.4671148786904414,-0.001169248757673195,-0.19102601578485823
1747152342.396651,0.9983259999999999,0.002196,0.126026,-0.15750000000000003,0.29750000000000004,0.6125,-0.4671148786904414,-0.001169248757673195,-0.19102601578485823
1747152342.4015267,0.998204,0.000488,0.125782,-0.14,0.28,0.6300000000000001,-0.4671148786904414,-0.001169248757673195,-0.19102601578485823
1747152342.4063969,0.995642,-0.0008539999999999999,0.125904,-0.08750000000000001,0.14,0.5425000000000001,-0.4671148786904414,-0.001169248757673195,-0.19102601578485823
1747152342.411272,0.996984,-0.001952,0.12566,-0.052500000000000005,0.17500000000000002,0.6300000000000001,-0.4671148786904414,-0.001169248757673195,-0.19102601578485823
1747152342.4161417,0.9958859999999999,-0.000244,0.125294,0.0,0.21000000000000002,0.6825000000000001,-0.4671148786904414,-0.001169248757673195,-0.19102601578485823
1747152342.4210303,0.996374,0.030987999999999998,0.12505,0.0,0.14,0.6475000000000001,-0.4671148786904414,-0.001169248757673195,-0.19102601578485823
1747152342.4258862,0.996618,-0.000244,0.125294,-0.07,0.15750000000000003,0.6475000000000001,-0.4671148786904414,-0.001169248757673195,-0.19102601578485823
1747152342.4307585,0.997472,-0.00122,0.123708,-0.0175,0.0175,0.56,-0.4630225080385852,0.0040923706518561824,-0.1873721134171295
1747152342.4370759,0.997838,0.000976,0.125172,-0.0175,0.08750000000000001,0.7000000000000001,-0.4630225080385852,0.0040923706518561824,-0.1873721134171295
1747152342.4405007,0.998448,-0.000244,0.125294,-0.0175,0.2625,0.6475000000000001,-0.4630225080385852,0.0040923706518561824,-0.1873721134171295
1747152342.445374,0.9977159999999999,-0.0013419999999999999,0.12444,0.0175,0.08750000000000001,0.5075000000000001,-0.4630225080385852,0.0040923706518561824,-0.1873721134171295
1747152342.4502463,0.996862,-0.000732,0.12285399999999999,0.035,0.12250000000000001,0.6300000000000001,-0.4630225080385852,0.0040923706518561824,-0.1873721134171295
1747152342.4551198,0.996618,-0.000122,0.12566,0.035,0.15750000000000003,0.6475000000000001,-0.4630225080385852,0.0040923706518561824,-0.1873721134171295
1747152342.4599912,0.9977159999999999,0.0,0.125782,-0.0175,0.1925,0.5950000000000001,-0.4630225080385852,0.0040923706518561824,-0.1873721134171295
1747152342.464862,0.997472,0.000366,0.12688,0.0,0.21000000000000002,0.6475000000000001,-0.4630225080385852,0.0040923706518561824,-0.1873721134171295
1747152342.4697335,0.996618,-0.000976,0.125294,-0.052500000000000005,0.22750000000000004,0.6300000000000001,-0.4630225080385852,0.0040923706518561824,-0.1873721134171295
1747152342.4746058,0.9983259999999999,-0.001586,0.126758,0.0,0.1925,0.6300000000000001,-0.4633148202280035,0.003800058462437884,-0.18459514761765566
1747152342.4794776,0.996008,0.000244,0.12395199999999999,0.0,0.08750000000000001,0.5075000000000001,-0.4633148202280035,0.003800058462437884,-0.18459514761765566
1747152342.4843493,0.99491,-0.000244,0.124074,-0.052500000000000005,0.21000000000000002,0.665,-0.4633148202280035,0.003800058462437884,-0.18459514761765566
1747152342.4901524,0.99857,-0.000122,0.125782,-0.035,0.1925,0.6475000000000001,-0.4633148202280035,0.003800058462437884,-0.18459514761765566
1747152342.4940953,0.99674,0.00122,0.127002,-0.052500000000000005,0.22750000000000004,0.6475000000000001,-0.4633148202280035,0.003800058462437884,-0.18459514761765566
1747152342.498965,0.99613,0.000244,0.12627,-0.10500000000000001,0.21000000000000002,0.6125,-0.4633148202280035,0.003800058462437884,-0.18459514761765566
1747152342.5038357,0.996862,-0.001464,0.126026,-0.08750000000000001,0.17500000000000002,0.6125,-0.4633148202280035,0.003800058462437884,-0.18459514761765566
1747152342.508707,0.999302,0.000244,0.126514,-0.052500000000000005,0.21000000000000002,0.6475000000000001,-0.4633148202280035,0.003800058462437884,-0.18459514761765566
1747152342.513578,0.996862,-0.000488,0.126148,-0.10500000000000001,0.10500000000000001,0.6475000000000001,-0.4633148202280035,0.003800058462437884,-0.18459514761765566
1747152342.5184495,0.99796,-0.000244,0.124928,-0.10500000000000001,0.17500000000000002,0.6300000000000001,-0.4633148202280035,0.003800058462437884,-0.18459514761765566
1747152342.523324,0.998082,0.000732,0.12456199999999999,-0.07,0.07,0.5775,-0.4615609470914937,0.00029231218941829873,-0.18839520608009355
1747152342.5281937,0.999058,0.000488,0.127124,-0.10500000000000001,0.21000000000000002,0.7525000000000001,-0.4615609470914937,0.00029231218941829873,-0.18839520608009355
1747152342.5330656,0.996984,-0.0017079999999999999,0.125538,-0.08750000000000001,0.24500000000000002,0.6475000000000001,-0.4615609470914937,0.00029231218941829873,-0.18839520608009355
1747152342.5379403,0.999424,-0.000244,0.123586,-0.10500000000000001,0.24500000000000002,0.6300000000000001,-0.4615609470914937,0.00029231218941829873,-0.18839520608009355
1747152342.5435483,0.99796,0.000122,0.125904,-0.10500000000000001,0.22750000000000004,0.6825000000000001,-0.4615609470914937,0.00029231218941829873,-0.18839520608009355
1747152342.5476832,0.99918,-0.00122,0.124074,-0.12250000000000001,0.17500000000000002,0.6300000000000001,-0.4615609470914937,0.00029231218941829873,-0.18839520608009355
1747152342.5525513,0.997228,-0.000366,0.12456199999999999,-0.12250000000000001,0.1925,0.6125,-0.4615609470914937,0.00029231218941829873,-0.18839520608009355
1747152342.557424,0.9977159999999999,-0.001098,0.125538,-0.10500000000000001,0.22750000000000004,0.6125,-0.4615609470914937,0.00029231218941829873,-0.18839520608009355
1747152342.5622964,0.996862,0.00122,0.126514,-0.12250000000000001,0.21000000000000002,0.5775,-0.4615609470914937,0.00029231218941829873,-0.18839520608009355
1747152342.567171,0.996374,0.000732,0.12505,-0.10500000000000001,0.22750000000000004,0.5775,-0.4615609470914937,0.00029231218941829873,-0.18839520608009355
1747152342.5720427,0.997228,-0.000488,0.126636,-0.08750000000000001,0.12250000000000001,0.5075000000000001,-0.45922244957614733,0.006138555977784273,-0.18985676702718504
1747152342.576916,0.997594,-0.00244,0.12456199999999999,-0.10500000000000001,0.1925,0.6825000000000001,-0.45922244957614733,0.006138555977784273,-0.18985676702718504
1747152342.5817852,0.997228,0.001952,0.126148,-0.035,0.17500000000000002,0.6300000000000001,-0.45922244957614733,0.006138555977784273,-0.18985676702718504
1747152342.5866582,0.997228,-0.001464,0.124196,-0.035,0.22750000000000004,0.6825000000000001,-0.45922244957614733,0.006138555977784273,-0.18985676702718504
1747152342.5915365,0.997838,0.00061,0.12688,-0.035,0.15750000000000003,0.665,-0.45922244957614733,0.006138555977784273,-0.18985676702718504
1747152342.597134,0.995764,-0.0008539999999999999,0.126026,0.035,0.12250000000000001,0.6475000000000001,-0.45922244957614733,0.006138555977784273,-0.18985676702718504
1747152342.601274,0.99735,-0.000732,0.12322,0.035,0.15750000000000003,0.6475000000000001,-0.45922244957614733,0.006138555977784273,-0.18985676702718504
1747152342.6061532,0.996374,0.000366,0.126026,0.052500000000000005,0.08750000000000001,0.5775,-0.45922244957614733,0.006138555977784273,-0.18985676702718504
1747152342.611017,0.9971059999999999,-0.000732,0.123464,0.0175,0.052500000000000005,0.6825000000000001,-0.45922244957614733,0.006138555977784273,-0.18985676702718504
1747152342.6159077,0.99613,0.000244,0.125782,-0.0175,0.08750000000000001,0.665,-0.4694533762057878,0.0020461853259280912,-0.19847997661502484
1747152342.6207666,0.99735,-0.001098,0.125294,0.0175,0.0175,0.56,-0.4694533762057878,0.0020461853259280912,-0.19847997661502484
1747152342.6256378,0.997472,-0.000122,0.125416,-0.0175,0.24500000000000002,0.6825000000000001,-0.4694533762057878,0.0020461853259280912,-0.19847997661502484
1747152342.6305096,0.997838,-0.00122,0.125782,-0.07,0.15750000000000003,0.6475000000000001,-0.4694533762057878,0.0020461853259280912,-0.19847997661502484
1747152342.6353838,0.997228,-0.0017079999999999999,0.126026,-0.08750000000000001,0.22750000000000004,0.6300000000000001,-0.4694533762057878,0.0020461853259280912,-0.19847997661502484
1747152342.6402543,0.999058,-0.0008539999999999999,0.126026,-0.0175,0.21000000000000002,0.6300000000000001,-0.4694533762057878,0.0020461853259280912,-0.19847997661502484
1747152342.6451278,0.99674,0.000488,0.124684,-0.08750000000000001,0.17500000000000002,0.5425000000000001,-0.4694533762057878,0.0020461853259280912,-0.19847997661502484
1747152342.6507142,0.998082,-0.0013419999999999999,0.123098,-0.10500000000000001,0.24500000000000002,0.56,-0.4694533762057878,0.0020461853259280912,-0.19847997661502484
1747152342.6548734,0.998082,0.000976,0.125172,0.0,0.24500000000000002,0.5950000000000001,-0.4694533762057878,0.0020461853259280912,-0.19847997661502484
1747152342.659747,0.997594,-0.00122,0.125416,-0.07,0.24500000000000002,0.6125,-0.4694533762057878,0.0020461853259280912,-0.19847997661502484
1747152342.6646173,0.9964959999999999,-0.00244,0.125294,-0.035,0.12250000000000001,0.525,-0.4630225080385852,0.003215434083601286,-0.19117217187956737
1747152342.6694856,0.9971059999999999,0.0008539999999999999,0.12444,-0.14,0.22750000000000004,0.6300000000000001,-0.4630225080385852,0.003215434083601286,-0.19117217187956737
1747152342.674352,0.99674,-0.00061,0.124806,-0.1925,0.28,0.6475000000000001,-0.4630225080385852,0.003215434083601286,-0.19117217187956737
1747152342.6792283,0.994422,0.000732,0.12395199999999999,-0.12250000000000001,0.22750000000000004,0.6300000000000001,-0.4630225080385852,0.003215434083601286,-0.19117217187956737
1747152342.6841013,0.99613,0.000122,0.125904,-0.14,0.28,0.6125,-0.4630225080385852,0.003215434083601286,-0.19117217187956737
1747152342.6889715,0.996618,-0.001098,0.127002,-0.21000000000000002,0.1925,0.6475000000000001,-0.4630225080385852,0.003215434083601286,-0.19117217187956737
1747152342.6938426,0.995764,-0.000976,0.12566,-0.10500000000000001,0.14,0.6300000000000001,-0.4630225080385852,0.003215434083601286,-0.19117217187956737
1747152342.6987162,0.997838,-0.002074,0.12566,-0.08750000000000001,0.17500000000000002,0.6825000000000001,-0.4630225080385852,0.003215434083601286,-0.19117217187956737
1747152342.7043023,0.996252,0.000244,0.127612,-0.15750000000000003,0.22750000000000004,0.665,-0.4630225080385852,0.003215434083601286,-0.19117217187956737
1747152342.7084634,0.997472,-0.000244,0.126026,-0.10500000000000001,0.14,0.665,-0.4630225080385852,0.003215434083601286,-0.19277988892136802
1747152342.7133315,0.997472,-0.00061,0.124318,-0.052500000000000005,-0.0175,0.525,-0.4644840689856767,-0.0017538731365097924,-0.19277988892136802
1747152342.718203,0.996618,0.00122,0.125782,-0.035,0.052500000000000005,0.665,-0.4644840689856767,-0.0017538731365097924,-0.19277988892136802
1747152342.7230875,0.99857,-0.000488,0.126636,-0.07,0.14,0.665,-0.4644840689856767,-0.0017538731365097924,-0.19277988892136802
1747152342.7279582,0.999058,-0.000488,0.126026,-0.07,0.24500000000000002,0.77,-0.4644840689856767,-0.0017538731365097924,-0.19277988892136802
1747152342.7328246,0.998448,0.000122,0.126392,-0.0175,0.15750000000000003,0.7000000000000001,-0.4644840689856767,-0.0017538731365097924,-0.19277988892136802
1747152342.7376964,0.999302,-0.000732,0.125904,0.035,0.035,0.6125,-0.4644840689856767,-0.0017538731365097924,-0.19277988892136802
1747152342.7425718,0.996984,0.00122,0.126392,0.052500000000000005,0.10500000000000001,0.6125,-0.4644840689856767,-0.0017538731365097924,-0.19277988892136802
1747152342.7474425,0.997472,0.002806,0.124806,0.052500000000000005,0.15750000000000003,0.5775,-0.4644840689856767,-0.0017538731365097924,-0.19277988892136802
1747152342.7523146,0.998692,-0.001464,0.126148,-0.0175,0.15750000000000003,0.5950000000000001,-0.4644840689856767,-0.0017538731365097924,-0.19277988892136802
1747152342.7579043,0.999058,0.000488,0.125538,0.10500000000000001,0.14,0.5775,-0.4565916398713826,0.003800058462437884,-0.1939491376790412
1747152342.7620616,0.999058,0.000488,0.125538,0.052500000000000005,0.1925,0.665,-0.4565916398713826,0.003800058462437884,-0.1939491376790412
1747152342.7669322,0.997838,0.000244,0.125538,-0.035,0.24500000000000002,0.6125,-0.4565916398713826,0.003800058462437884,-0.1939491376790412
1747152342.7718074,0.99552,-0.0008539999999999999,0.125294,-0.035,0.17500000000000002,0.665,-0.4565916398713826,0.003800058462437884,-0.1939491376790412
1747152342.776676,0.99735,-0.001464,0.126148,-0.08750000000000001,0.22750000000000004,0.665,-0.4565916398713826,0.003800058462437884,-0.1939491376790412
1747152342.781548,0.9977159999999999,-0.000366,0.12627,-0.12250000000000001,0.17500000000000002,0.5775,-0.4565916398713826,0.003800058462437884,-0.1939491376790412
1747152342.7864223,0.997472,-0.000366,0.12456199999999999,-0.15750000000000003,0.17500000000000002,0.6300000000000001,-0.4565916398713826,0.003800058462437884,-0.1939491376790412
1747152342.7913,0.997594,0.000976,0.125172,-0.12250000000000001,0.15750000000000003,0.6300000000000001,-0.4565916398713826,0.003800058462437884,-0.1939491376790412
1747152342.7961679,0.997472,0.000244,0.124074,-0.22750000000000004,0.17500000000000002,0.6475000000000001,-0.4565916398713826,0.003800058462437884,-0.1939491376790412
1747152342.8010414,0.999302,0.000122,0.124684,-0.1925,0.21000000000000002,0.6475000000000001,-0.4565916398713826,0.003800058462437884,-0.1939491376790412
1747152342.8059149,0.99735,0.000732,0.125904,-0.17500000000000002,0.14,0.5950000000000001,-0.4665302543116048,0.009938614440222157,-0.1945337620578778
1747152342.811504,0.9964959999999999,-0.001464,0.124806,-0.15750000000000003,0.1925,0.7000000000000001,-0.4665302543116048,0.009938614440222157,-0.1945337620578778
1747152342.8156593,0.996618,0.000366,0.12505,-0.12250000000000001,0.2625,0.7000000000000001,-0.4665302543116048,0.009938614440222157,-0.1945337620578778
1747152342.8205338,0.9964959999999999,-0.0026839999999999998,0.124196,-0.10500000000000001,0.21000000000000002,0.56,-0.4665302543116048,0.009938614440222157,-0.1945337620578778
1747152342.8254023,0.998082,0.000122,0.12688,-0.0175,0.1925,0.6300000000000001,-0.4665302543116048,0.009938614440222157,-0.1945337620578778
1747152342.830276,0.997594,0.0,0.124074,-0.0175,0.24500000000000002,0.5775,-0.4665302543116048,0.009938614440222157,-0.1945337620578778
1747152342.8351452,0.9971059999999999,0.000122,0.125294,-0.10500000000000001,0.17500000000000002,0.5950000000000001,-0.4665302543116048,0.009938614440222157,-0.1945337620578778
1747152342.8400257,0.997594,-0.000366,0.12566,-0.052500000000000005,0.17500000000000002,0.6300000000000001,-0.4665302543116048,0.009938614440222157,-0.1945337620578778
1747152342.84489,0.996252,-0.000122,0.125416,-0.0175,0.1925,0.6125,-0.4665302543116048,0.009938614440222157,-0.1945337620578778
1747152342.8497617,0.995642,0.000122,0.124928,0.0,0.17500000000000002,0.5950000000000001,-0.4595147617655656,0.005553931598947676,-0.19161064016369483
1747152342.8546362,0.998082,-0.0008539999999999999,0.125172,-0.0175,0.14,0.5425000000000001,-0.4595147617655656,0.005553931598947676,-0.19161064016369483
1747152342.859512,0.997838,-0.00061,0.12505,-0.035,0.17500000000000002,0.665,-0.4595147617655656,0.005553931598947676,-0.19161064016369483
1747152342.8650963,0.996374,-0.000122,0.126148,0.035,0.14,0.6825000000000001,-0.4595147617655656,0.005553931598947676,-0.19161064016369483
1747152342.869253,0.997228,-0.00061,0.126148,-0.035,0.21000000000000002,0.6825000000000001,-0.4595147617655656,0.005553931598947676,-0.19161064016369483
1747152342.8741302,0.9977159999999999,-0.001464,0.125294,0.08750000000000001,0.07,0.7175,-0.4595147617655656,0.005553931598947676,-0.19161064016369483
1747152342.879001,0.997472,0.000244,0.126026,0.0175,0.10500000000000001,0.6475000000000001,-0.4595147617655656,0.005553931598947676,-0.19161064016369483
1747152342.8838751,0.996984,-0.030744,0.12505,-0.08750000000000001,0.12250000000000001,0.6825000000000001,-0.4595147617655656,0.005553931598947676,-0.19161064016369483
1747152342.8887415,0.99918,-0.000244,0.124196,-0.0175,0.12250000000000001,0.6300000000000001,-0.4595147617655656,0.005553931598947676,-0.19161064016369483
1747152342.8936162,0.996618,0.000122,0.124684,-0.0175,0.10500000000000001,0.5425000000000001,-0.4595147617655656,0.005553931598947676,-0.19161064016369483
1747152342.8984833,0.998692,0.000366,0.125416,-0.08750000000000001,0.1925,0.5950000000000001,-0.4671148786904414,-0.0035077462730195848,-0.19847997661502484
1747152342.9033678,0.997228,-0.001098,0.12505,-0.08750000000000001,0.15750000000000003,0.6300000000000001,-0.4671148786904414,-0.0035077462730195848,-0.19847997661502484
1747152342.908233,0.9983259999999999,0.0017079999999999999,0.124806,-0.08750000000000001,0.31500000000000006,0.6300000000000001,-0.4671148786904414,-0.0035077462730195848,-0.19847997661502484
1747152342.9131105,0.996984,-0.00183,0.125538,-0.10500000000000001,0.31500000000000006,0.6475000000000001,-0.4671148786904414,-0.0035077462730195848,-0.19847997661502484
1747152342.9186962,0.9989359999999999,-0.000244,0.12505,-0.07,0.28,0.6300000000000001,-0.4671148786904414,-0.0035077462730195848,-0.19847997661502484
1747152342.922856,0.996862,-0.00061,0.125782,-0.07,0.24500000000000002,0.6475000000000001,-0.4671148786904414,-0.0035077462730195848,-0.19847997661502484
1747152342.9277267,0.996374,-0.00061,0.125538,-0.052500000000000005,0.22750000000000004,0.56,-0.4671148786904414,-0.0035077462730195848,-0.19847997661502484
1747152342.932599,0.99796,-0.000366,0.125782,-0.12250000000000001,0.2625,0.56,-0.4671148786904414,-0.0035077462730195848,-0.19847997661502484
1747152342.9374704,0.99613,-0.000488,0.124928,-0.12250000000000001,0.22750000000000004,0.5950000000000001,-0.4671148786904414,-0.0035077462730195848,-0.19847997661502484
1747152342.9423428,0.995642,0.001098,0.127124,-0.08750000000000001,0.24500000000000002,0.5775,-0.4671148786904414,-0.0035077462730195848,-0.19847997661502484
1747152342.947214,0.996862,0.000244,0.12566,-0.07,0.10500000000000001,0.5075000000000001,-0.4580532008184741,-0.0040923706518561824,-0.1945337620578778
1747152342.9520879,0.9971059999999999,0.0,0.124196,-0.035,0.15750000000000003,0.665,-0.4580532008184741,-0.0040923706518561824,-0.1945337620578778
1747152342.9569564,0.996862,-0.00244,0.125538,-0.0175,0.21000000000000002,0.6825000000000001,-0.4580532008184741,-0.0040923706518561824,-0.1945337620578778
1747152342.9618337,0.996618,-0.000122,0.12566,0.0175,0.15750000000000003,0.6475000000000001,-0.4580532008184741,-0.0040923706518561824,-0.1945337620578778
1747152342.9667056,0.997228,0.00061,0.125782,-0.0175,0.10500000000000001,0.6825000000000001,-0.4580532008184741,-0.0040923706518561824,-0.1945337620578778
1747152342.9722924,0.99735,-0.0008539999999999999,0.12383,0.052500000000000005,0.17500000000000002,0.665,-0.4580532008184741,-0.0040923706518561824,-0.1945337620578778
1747152342.9764528,0.996862,0.001098,0.124806,0.052500000000000005,0.17500000000000002,0.56,-0.4580532008184741,-0.0040923706518561824,-0.1945337620578778
1747152342.9813201,0.996984,-0.00061,0.123708,4.4625,0.10500000000000001,0.6300000000000001,-0.4580532008184741,-0.0040923706518561824,-0.1945337620578778
1747152342.9861925,0.998204,-0.001586,0.124318,0.035,0.1925,0.5950000000000001,-0.4580532008184741,-0.0040923706518561824,-0.1945337620578778
1747152342.9910672,0.998692,-0.001586,0.126026,0.052500000000000005,0.08750000000000001,0.525,-0.4674071908798597,-0.004969307220111079,-0.19584916691026016
1747152342.9959407,0.998692,0.001098,0.126148,-0.052500000000000005,0.14,0.6300000000000001,-0.4674071908798597,-0.004969307220111079,-0.19584916691026016
1747152343.000811,0.9958859999999999,0.00061,0.124928,-0.052500000000000005,0.15750000000000003,0.6125,-0.4674071908798597,-0.004969307220111079,-0.19584916691026016
1747152343.0056806,0.9952759999999999,-0.001464,0.125904,-0.052500000000000005,0.28,0.6825000000000001,-0.4674071908798597,-0.004969307220111079,-0.19584916691026016
1747152343.0105531,0.9971059999999999,0.0,0.12627,-0.035,0.2625,0.6300000000000001,-0.4674071908798597,-0.004969307220111079,-0.19584916691026016
1747152343.0154266,0.996252,0.0,0.12322,-0.07,0.12250000000000001,0.5950000000000001,-0.4674071908798597,-0.004969307220111079,-0.19584916691026016
1747152343.0203001,0.997228,0.000244,0.126514,-0.07,0.07,0.525,-0.4674071908798597,-0.004969307220111079,-0.19584916691026016
1747152343.0259132,0.9958859999999999,0.00061,0.124928,-0.07,0.21000000000000002,0.6825000000000001,-0.4674071908798597,-0.004969307220111079,-0.19584916691026016
1747152343.0300457,0.996618,0.0008539999999999999,0.124928,-0.10500000000000001,0.17500000000000002,0.6125,-0.4674071908798597,-0.004969307220111079,-0.19584916691026016
1747152343.0349164,0.9971059999999999,0.000488,0.125782,-0.07,0.1925,0.5950000000000001,-0.4674071908798597,-0.004969307220111079,-0.19584916691026016
1747152343.0397897,0.998082,0.000366,0.12505,-0.10500000000000001,0.15750000000000003,0.525,-0.4668225665010231,-0.0043846828412744815,-0.19204910844782228
1747152343.0446596,0.99796,-0.000122,0.124684,-0.14,0.21000000000000002,0.7000000000000001,-0.4668225665010231,-0.0043846828412744815,-0.19204910844782228
1747152343.0495293,0.996252,0.000122,0.125416,-0.17500000000000002,0.28,0.7175,-0.4668225665010231,-0.0043846828412744815,-0.19204910844782228
1747152343.0543995,0.996374,0.001098,0.12505,-0.14,0.1925,0.6475000000000001,-0.4668225665010231,-0.0043846828412744815,-0.19204910844782228
1747152343.059276,0.997594,0.000244,0.125172,-0.17500000000000002,0.28,0.6125,-0.4668225665010231,-0.0043846828412744815,-0.19204910844782228
1747152343.0641427,0.99796,-0.000488,0.124074,-0.14,0.24500000000000002,0.6475000000000001,-0.4668225665010231,-0.0043846828412744815,-0.19204910844782228
1747152343.069026,0.997594,0.0008539999999999999,0.12444,-0.17500000000000002,0.24500000000000002,0.6125,-0.4668225665010231,-0.0043846828412744815,-0.19204910844782228
1747152343.0738952,0.9964959999999999,-0.002196,0.124928,-0.052500000000000005,0.22750000000000004,0.6125,-0.4668225665010231,-0.0043846828412744815,-0.19204910844782228
1747152343.0795057,0.997594,-0.000976,0.124196,-0.035,0.14,0.5950000000000001,-0.4668225665010231,-0.0043846828412744815,-0.19204910844782228
1747152343.0836337,0.995764,0.0013419999999999999,0.125782,-0.052500000000000005,0.14,0.5950000000000001,-0.4668225665010231,-0.00029231218941829873,-0.18897983045893013
1747152343.0885084,0.996862,0.000122,0.127002,0.052500000000000005,0.07,0.56,-0.4671148786904414,-0.00029231218941829873,-0.18897983045893013
1747152343.0933783,0.99552,-0.000732,0.125538,-0.07,0.17500000000000002,0.6300000000000001,-0.4671148786904414,-0.00029231218941829873,-0.18897983045893013
1747152343.0982494,0.99674,0.000732,0.124196,-0.07,0.2625,0.665,-0.4671148786904414,-0.00029231218941829873,-0.18897983045893013
1747152343.1031215,0.9983259999999999,-0.00061,0.12444,-0.0175,0.21000000000000002,0.5950000000000001,-0.4671148786904414,-0.00029231218941829873,-0.18897983045893013
1747152343.1079955,0.997472,-0.000976,0.124806,0.035,0.10500000000000001,0.5950000000000001,-0.4671148786904414,-0.00029231218941829873,-0.18897983045893013
1747152343.1128619,0.9971059999999999,0.00122,0.12505,0.0,0.10500000000000001,0.56,-0.4671148786904414,-0.00029231218941829873,-0.18897983045893013
1747152343.1177363,0.997228,-0.001464,0.12383,0.0,0.15750000000000003,0.6300000000000001,-0.4671148786904414,-0.00029231218941829873,-0.18897983045893013
1747152343.1226132,0.997228,-0.001098,0.12627,-0.0175,0.29750000000000004,0.6300000000000001,-0.4671148786904414,-0.00029231218941829873,-0.18897983045893013
1747152343.1274908,0.997472,0.000366,0.126636,0.052500000000000005,0.14,0.6475000000000001,-0.4671148786904414,-0.00029231218941829873,-0.18897983045893013
1747152343.1330783,0.99857,0.000976,0.12456199999999999,0.0,0.035,0.5425000000000001,-0.45980707395498394,0.006430868167202572,-0.195703010815551
1747152343.1372302,0.995398,0.000366,0.125416,0.035,0.10500000000000001,0.6300000000000001,-0.45980707395498394,0.006430868167202572,-0.195703010815551
1747152343.1421008,0.997838,-0.001952,0.12627,0.0,0.12250000000000001,0.5950000000000001,-0.45980707395498394,0.006430868167202572,-0.195703010815551
1747152343.146975,0.998814,-0.000488,0.126026,-0.035,0.15750000000000003,0.7175,-0.45980707395498394,0.006430868167202572,-0.195703010815551
1747152343.1518471,0.997594,-0.001098,0.12456199999999999,0.0,0.21000000000000002,0.6825000000000001,-0.45980707395498394,0.006430868167202572,-0.195703010815551
1747152343.1567183,0.998082,0.000976,0.124806,-0.10500000000000001,0.15750000000000003,0.6300000000000001,-0.45980707395498394,0.006430868167202572,-0.195703010815551
1747152343.1615973,0.996618,-0.0017079999999999999,0.12444,-0.14,0.29750000000000004,0.665,-0.45980707395498394,0.006430868167202572,-0.195703010815551
1747152343.1664634,0.996618,-0.000244,0.124928,-0.12250000000000001,0.21000000000000002,0.6125,-0.45980707395498394,0.006430868167202572,-0.195703010815551
1747152343.1713357,0.996984,0.00122,0.124684,-0.07,0.1925,0.6825000000000001,-0.45980707395498394,0.006430868167202572,-0.195703010815551
1747152343.1762059,0.99735,0.001098,0.125538,-0.10500000000000001,0.10500000000000001,0.56,-0.45980707395498394,0.006430868167202572,-0.195703010815551
1747152343.1810803,0.9989359999999999,0.000244,0.125782,-0.14,0.17500000000000002,0.5775,-0.45571470330312774,0.0043846828412744815,-0.19365682548962293
1747152343.1867096,0.995032,-0.0013419999999999999,0.124074,-0.17500000000000002,0.28,0.665,-0.45571470330312774,0.0043846828412744815,-0.19365682548962293
1747152343.190827,0.99674,0.000122,0.125782,-0.15750000000000003,0.3325,0.6475000000000001,-0.45571470330312774,0.0043846828412744815,-0.19365682548962293
1747152343.1957002,0.9952759999999999,-0.000366,0.125538,-0.07,0.17500000000000002,0.5775,-0.45571470330312774,0.0043846828412744815,-0.19365682548962293
1747152343.200573,0.99796,-0.000244,0.125782,-0.17500000000000002,0.22750000000000004,0.5950000000000001,-0.45571470330312774,0.0043846828412744815,-0.19365682548962293
1747152343.2054434,0.996984,-0.0013419999999999999,0.125538,-0.15750000000000003,0.22750000000000004,0.6300000000000001,-0.45571470330312774,0.0043846828412744815,-0.19365682548962293
1747152343.210316,0.996984,0.0008539999999999999,0.12688,-0.052500000000000005,0.14,0.6300000000000001,-0.45571470330312774,0.0043846828412744815,-0.19365682548962293
1747152343.2151887,0.996862,-0.000244,0.126758,-0.035,0.1925,0.6475000000000001,-0.45571470330312774,0.0043846828412744815,-0.19365682548962293
1747152343.2200618,0.9977159999999999,-0.000244,0.123464,0.0175,0.15750000000000003,0.665,-0.45571470330312774,0.0043846828412744815,-0.19365682548962293
1747152343.2249312,0.996862,0.000122,0.094428,0.0,0.07,0.5775,-0.45688395206080096,0.010523238819058756,-0.19248757673194972
1747152343.2298021,0.997594,0.000244,0.126026,0.0175,0.07,0.6125,-0.45688395206080096,0.010523238819058756,-0.19248757673194972
1747152343.2346756,0.996252,-0.000732,0.126148,-0.0175,0.12250000000000001,0.6825000000000001,-0.45688395206080096,0.010523238819058756,-0.19248757673194972
1747152343.2402928,0.995032,0.0,0.12383,-0.052500000000000005,0.1925,0.665,-0.45688395206080096,0.010523238819058756,-0.19248757673194972
1747152343.244418,0.9989359999999999,0.000122,0.125294,-0.0175,0.22750000000000004,0.6300000000000001,-0.45688395206080096,0.010523238819058756,-0.19248757673194972
1747152343.2492871,0.99674,-0.00122,0.12505,0.0,0.10500000000000001,0.6475000000000001,-0.45688395206080096,0.010523238819058756,-0.19248757673194972
1747152343.2541604,0.9964959999999999,-0.000244,0.124928,0.035,0.15750000000000003,0.6125,-0.45688395206080096,0.010523238819058756,-0.19248757673194972
1747152343.2590382,0.9977159999999999,-0.000122,0.12688,0.035,0.17500000000000002,0.6125,-0.45688395206080096,0.010523238819058756,-0.19248757673194972
1747152343.2639115,0.997594,-0.0008539999999999999,0.125782,0.07,0.08750000000000001,0.6125,-0.45688395206080096,0.010523238819058756,-0.19248757673194972
1747152343.2687762,0.996374,0.001464,0.12566,-0.0175,0.15750000000000003,0.665,-0.45688395206080096,0.010523238819058756,-0.19248757673194972
1747152343.273648,0.996984,0.000366,0.124684,0.07,0.08750000000000001,0.5950000000000001,-0.4644840689856767,0.0043846828412744815,-0.19234142063724058
1747152343.27852,0.996862,-0.000366,0.12688,0.035,0.07,0.56,-0.4644840689856767,0.0043846828412744815,-0.19234142063724058
1747152343.2833943,0.997838,-0.000976,0.12505,-0.052500000000000005,0.21000000000000002,0.6825000000000001,-0.4644840689856767,0.0043846828412744815,-0.19234142063724058
1747152343.2882643,0.996252,-0.00061,0.125172,0.0175,0.2625,0.6300000000000001,-0.4644840689856767,0.0043846828412744815,-0.19234142063724058
1747152343.29976,0.996252,0.001464,0.12566,-0.0175,0.22750000000000004,0.7000000000000001,-0.4644840689856767,0.0043846828412744815,-0.19234142063724058
1747152343.302706,0.996008,0.000122,0.128466,-0.07,0.2625,0.6125,-0.4644840689856767,0.0043846828412744815,-0.19234142063724058
1747152343.30758,0.996984,-0.000488,0.12627,-0.07,0.2625,0.56,-0.4644840689856767,0.0043846828412744815,-0.19234142063724058
1747152343.3124456,0.9964959999999999,0.000366,0.123586,-0.07,0.1925,0.5950000000000001,-0.4644840689856767,0.0043846828412744815,-0.19234142063724058
1747152343.3173232,0.998082,0.00122,0.125172,-0.0175,0.14,0.5775,-0.4644840689856767,0.0043846828412744815,-0.19234142063724058
1747152343.3221998,0.996984,-0.000488,0.125416,-0.035,0.10500000000000001,0.5425000000000001,-0.4688687518269512,0.010230926629640456,-0.19146448406898567
1747152343.3270686,0.99674,-0.00061,0.124684,-0.035,0.08750000000000001,0.665,-0.4688687518269512,0.010230926629640456,-0.19146448406898567
1747152343.3319447,0.996374,-0.000488,0.125782,0.0175,0.17500000000000002,0.6825000000000001,-0.4688687518269512,0.010230926629640456,-0.19146448406898567
1747152343.3368094,0.997838,0.001098,0.125294,-0.0175,0.17500000000000002,0.6475000000000001,-0.4688687518269512,0.010230926629640456,-0.19146448406898567
1747152343.3416822,0.99613,-0.00183,0.12505,0.0175,0.12250000000000001,0.6300000000000001,-0.4688687518269512,0.010230926629640456,-0.19146448406898567
1747152343.3465521,0.996008,-0.001464,0.124928,0.0175,0.12250000000000001,0.5950000000000001,-0.4688687518269512,0.010230926629640456,-0.19146448406898567
1747152343.3543715,0.998082,0.0013419999999999999,0.12505,0.052500000000000005,0.12250000000000001,0.6300000000000001,-0.4688687518269512,0.010230926629640456,-0.19146448406898567
1747152343.3572538,0.998204,0.000244,0.12749,0.0,0.21000000000000002,0.665,-0.4688687518269512,0.010230926629640456,-0.19146448406898567
1747152343.3621302,0.99735,-0.000976,0.124074,-0.14,0.15750000000000003,0.5775,-0.4688687518269512,0.010230926629640456,-0.19146448406898567
1747152343.3670025,0.99796,0.000244,0.124928,-0.035,0.15750000000000003,0.5775,-0.4621455714703303,-0.001169248757673195,-0.1905875475007308
1747152343.3718753,0.996984,-0.000122,0.125904,-0.052500000000000005,0.08750000000000001,0.5775,-0.4621455714703303,-0.001169248757673195,-0.1905875475007308
1747152343.3767452,0.99796,0.000244,0.12322,0.0175,0.24500000000000002,0.7350000000000001,-0.4621455714703303,-0.001169248757673195,-0.1905875475007308
1747152343.381617,0.996374,-0.00061,0.12285399999999999,0.052500000000000005,0.14,0.6125,-0.4621455714703303,-0.001169248757673195,-0.1905875475007308
1747152343.3864863,0.994178,0.000244,0.12444,0.0,0.21000000000000002,0.665,-0.4621455714703303,-0.001169248757673195,-0.1905875475007308
1747152343.3913689,0.996374,-0.000122,0.124806,0.07,0.17500000000000002,0.6125,-0.4621455714703303,-0.001169248757673195,-0.1905875475007308
1747152343.396234,0.9952759999999999,0.000244,0.123342,0.052500000000000005,0.07,0.665,-0.4621455714703303,-0.001169248757673195,-0.1905875475007308
1747152343.4011102,0.9971059999999999,-0.000244,0.12566,-0.052500000000000005,0.15750000000000003,0.665,-0.4621455714703303,-0.001169248757673195,-0.1905875475007308
1747152343.4083614,0.996374,-0.001586,0.122732,-0.052500000000000005,0.15750000000000003,0.665,-0.4621455714703303,-0.001169248757673195,-0.1905875475007308
1747152343.411236,0.996374,-0.001586,0.122732,-0.052500000000000005,0.15750000000000003,0.56,-0.4621455714703303,-0.001169248757673195,-0.1905875475007308
1747152343.416111,0.999668,0.000244,0.12456199999999999,0.0,0.035,0.5950000000000001,-0.4627301958491669,0.0040923706518561824,-0.19161064016369483
1747152343.420978,0.9995459999999999,-0.000122,0.124684,-0.035,0.17500000000000002,0.7000000000000001,-0.4627301958491669,0.0040923706518561824,-0.19161064016369483
1747152343.4258516,0.996984,-0.000122,0.125538,-0.0175,0.21000000000000002,0.665,-0.4627301958491669,0.0040923706518561824,-0.19161064016369483
1747152343.430724,0.997838,0.0,0.125294,-0.035,0.14,0.6125,-0.4627301958491669,0.0040923706518561824,-0.19161064016369483
1747152343.435599,0.998814,0.030255999999999998,0.12456199999999999,0.0175,0.28,0.7350000000000001,-0.4627301958491669,0.0040923706518561824,-0.19161064016369483
1747152343.440463,0.9977159999999999,0.001952,0.12688,-0.052500000000000005,0.22750000000000004,0.6475000000000001,-0.4627301958491669,0.0040923706518561824,-0.19161064016369483
1747152343.4453397,0.997472,0.001464,0.12566,-0.035,0.14,0.6125,-0.4627301958491669,0.0040923706518561824,-0.19161064016369483
1747152343.4502156,0.9977159999999999,-0.00061,0.125416,-0.052500000000000005,0.1925,0.5950000000000001,-0.4627301958491669,0.0040923706518561824,-0.19161064016369483
1747152343.4550874,0.9971059999999999,-0.001464,0.124806,-0.15750000000000003,0.1925,0.6300000000000001,-0.4627301958491669,0.0040923706518561824,-0.19161064016369483
1747152343.4614358,0.9952759999999999,0.0008539999999999999,0.126392,-0.12250000000000001,0.24500000000000002,0.5775,-0.45834551300789245,-0.001169248757673195,-0.182987430575855
1747152343.4648342,0.998448,0.001952,0.126636,-0.12250000000000001,0.17500000000000002,0.5775,-0.45834551300789245,-0.001169248757673195,-0.182987430575855
1747152343.4697027,0.9977159999999999,-0.000244,0.126148,-0.10500000000000001,0.2625,0.6825000000000001,-0.45834551300789245,-0.001169248757673195,-0.182987430575855
1747152343.4745758,0.99674,-0.000122,0.125904,-0.15750000000000003,0.29750000000000004,0.6825000000000001,-0.45834551300789245,-0.001169248757673195,-0.182987430575855
1747152343.4794505,0.998204,0.001586,0.126636,-0.14,0.1925,0.6300000000000001,-0.45834551300789245,-0.001169248757673195,-0.182987430575855
1747152343.4843178,0.99857,0.00061,0.124928,-0.12250000000000001,0.15750000000000003,0.6125,-0.45834551300789245,-0.001169248757673195,-0.182987430575855
1747152343.4891918,0.996984,-0.0008539999999999999,0.125294,-0.14,0.1925,0.6125,-0.45834551300789245,-0.001169248757673195,-0.182987430575855
1747152343.4940612,0.9983259999999999,-0.0008539999999999999,0.123342,-0.07,0.14,0.665,-0.45834551300789245,-0.001169248757673195,-0.182987430575855
1747152343.4989352,0.998448,0.000122,0.12566,-0.0175,0.1925,0.6475000000000001,-0.45834551300789245,-0.001169248757673195,-0.182987430575855
1747152343.5038054,0.998692,-0.00122,0.12395199999999999,-0.12250000000000001,0.17500000000000002,0.5950000000000001,-0.45834551300789245,-0.001169248757673195,-0.182987430575855
1747152343.5086782,0.997228,-0.001586,0.125538,-0.08750000000000001,0.22750000000000004,0.6125,-0.46185325928091203,0.003800058462437884,-0.19000292312189418
1747152343.5145354,0.997472,-0.0013419999999999999,0.126636,0.0175,0.24500000000000002,0.6825000000000001,-0.46185325928091203,0.003800058462437884,-0.19000292312189418
1747152343.518428,0.996618,0.00122,0.123342,0.0175,0.24500000000000002,0.6825000000000001,-0.46185325928091203,0.003800058462437884,-0.19000292312189418
1747152343.5233011,0.9958859999999999,-0.000732,0.127002,0.052500000000000005,0.1925,0.6125,-0.46185325928091203,0.003800058462437884,-0.19000292312189418
1747152343.5281687,0.99735,0.000244,0.125782,0.035,0.17500000000000002,0.6300000000000001,-0.46185325928091203,0.003800058462437884,-0.19000292312189418
1747152343.5330393,0.998448,-0.00122,0.124806,0.08750000000000001,0.14,0.5950000000000001,-0.46185325928091203,0.003800058462437884,-0.19000292312189418
1747152343.5379126,0.996252,-0.001098,0.12456199999999999,0.035,0.15750000000000003,0.6300000000000001,-0.46185325928091203,0.003800058462437884,-0.19000292312189418
1747152343.5427876,0.996008,-0.000122,0.124928,0.052500000000000005,0.1925,0.665,-0.46185325928091203,0.003800058462437884,-0.19000292312189418
1747152343.5476613,0.997472,-0.000122,0.124684,0.0175,0.14,0.6475000000000001,-0.46185325928091203,0.003800058462437884,-0.19000292312189418
1747152343.5525305,0.997594,0.000366,0.124318,-0.08750000000000001,0.12250000000000001,0.56,-0.45980707395498394,-0.005261619409529378,-0.19789535223618826
1747152343.5574036,0.9977159999999999,-0.001586,0.12505,0.0,0.12250000000000001,0.5950000000000001,-0.45980707395498394,-0.005261619409529378,-0.19789535223618826
1747152343.5622797,0.997472,-0.000732,0.12444,-0.0175,0.17500000000000002,0.7175,-0.45980707395498394,-0.005261619409529378,-0.19789535223618826
1747152343.5678663,0.996618,-0.000244,0.124928,-0.0175,0.15750000000000003,0.665,-0.45980707395498394,-0.005261619409529378,-0.19789535223618826
1747152343.5720224,0.99796,0.00244,0.124684,0.0,0.12250000000000001,0.5950000000000001,-0.45980707395498394,-0.005261619409529378,-0.19789535223618826
1747152343.5768924,0.9964959999999999,0.000488,0.124806,-0.07,0.14,0.5775,-0.45980707395498394,-0.005261619409529378,-0.19789535223618826
1747152343.5817614,0.999058,0.0,0.124928,-0.07,0.14,0.6125,-0.45980707395498394,-0.005261619409529378,-0.19789535223618826
1747152343.5866356,0.997472,-0.000366,0.126514,-0.08750000000000001,0.12250000000000001,0.6300000000000001,-0.45980707395498394,-0.005261619409529378,-0.19789535223618826
1747152343.5915077,0.996984,0.000122,0.124928,-0.14,0.22750000000000004,0.6125,-0.45980707395498394,-0.005261619409529378,-0.19789535223618826
1747152343.5963838,0.999302,-0.001098,0.125416,-0.12250000000000001,0.22750000000000004,0.6125,-0.45980707395498394,-0.005261619409529378,-0.19789535223618826
1747152343.601249,0.998448,-0.000732,0.12395199999999999,-0.10500000000000001,0.17500000000000002,0.5950000000000001,-0.464776381175095,0.008769365682548963,-0.19351066939491376
1747152343.6061213,0.99735,0.000244,0.12566,-0.12250000000000001,0.14,0.5425000000000001,-0.464776381175095,0.008769365682548963,-0.19351066939491376
1747152343.6109927,0.9971059999999999,-0.00061,0.125294,-0.21000000000000002,0.35000000000000003,0.6125,-0.464776381175095,0.008769365682548963,-0.19351066939491376
1747152343.6158662,0.994788,0.00061,0.124196,-0.17500000000000002,0.28,0.56,-0.464776381175095,0.008769365682548963,-0.19351066939491376
1747152343.621453,0.9958859999999999,-0.000488,0.124806,-0.10500000000000001,0.1925,0.5775,-0.464776381175095,0.008769365682548963,-0.19351066939491376
1747152343.6256118,0.996984,0.0008539999999999999,0.127246,-0.12250000000000001,0.2625,0.6300000000000001,-0.464776381175095,0.008769365682548963,-0.19351066939491376
1747152343.6304874,0.997838,0.000244,0.126514,-0.07,0.2625,0.6125,-0.464776381175095,0.008769365682548963,-0.19351066939491376
1747152343.6353564,0.996618,0.000244,0.125172,-0.07,0.21000000000000002,0.6475000000000001,-0.464776381175095,0.008769365682548963,-0.19351066939491376
1747152343.640232,0.996008,0.001098,0.12444,-0.052500000000000005,0.1925,0.6475000000000001,-0.464776381175095,0.008769365682548963,-0.19351066939491376
1747152343.645104,0.998082,-0.000122,0.126026,-0.035,0.17500000000000002,0.5775,-0.464776381175095,0.008769365682548963,-0.19351066939491376
1747152343.6499727,0.9977159999999999,-0.001952,0.125172,0.0,0.08750000000000001,0.56,-0.45922244957614733,0.001169248757673195,-0.19029523531131248
1747152343.6548493,0.996862,-0.001098,0.126026,0.0175,0.12250000000000001,0.665,-0.45922244957614733,0.001169248757673195,-0.19029523531131248
1747152343.6597202,0.9971059999999999,-0.0013419999999999999,0.124806,0.0,0.14,0.6825000000000001,-0.45922244957614733,0.001169248757673195,-0.19029523531131248
1747152343.6645904,0.998204,-0.000244,0.12456199999999999,-0.052500000000000005,0.08750000000000001,0.5950000000000001,-0.45922244957614733,0.001169248757673195,-0.19029523531131248
1747152343.6694636,0.997472,-0.000732,0.125538,-0.052500000000000005,0.07,0.5425000000000001,-0.45922244957614733,0.001169248757673195,-0.19029523531131248
1747152343.675049,0.99857,-0.000244,0.125538,0.0175,0.10500000000000001,0.6125,-0.45922244957614733,0.001169248757673195,-0.19029523531131248
1747152343.679213,0.998814,-0.00122,0.12395199999999999,-0.035,0.21000000000000002,0.7350000000000001,-0.45922244957614733,0.001169248757673195,-0.19029523531131248
1747152343.6840858,0.99857,-0.00244,0.12505,0.0,0.17500000000000002,0.6300000000000001,-0.45922244957614733,0.001169248757673195,-0.19029523531131248
1747152343.6889515,0.99857,0.00061,0.12444,-0.052500000000000005,0.1925,0.6475000000000001,-0.45922244957614733,0.001169248757673195,-0.19029523531131248
1747152343.6938248,0.999912,-0.000488,0.125538,0.0,0.17500000000000002,0.665,-0.4659456299327682,0.007892429114294067,-0.1965799473838059
1747152343.6986961,0.998204,0.001952,0.124928,-0.052500000000000005,0.17500000000000002,0.56,-0.4659456299327682,0.007892429114294067,-0.1965799473838059
1747152343.7035697,0.9952759999999999,0.0008539999999999999,0.125294,-0.052500000000000005,0.29750000000000004,0.7000000000000001,-0.4659456299327682,0.007892429114294067,-0.1965799473838059
1747152343.7084398,0.9971059999999999,0.00061,0.125538,0.0175,0.15750000000000003,0.6125,-0.4659456299327682,0.007892429114294067,-0.1965799473838059
1747152343.71331,0.997594,-0.000976,0.12322,-0.0175,0.15750000000000003,0.6475000000000001,-0.4659456299327682,0.007892429114294067,-0.1965799473838059
1747152343.7181826,0.9971059999999999,0.000366,0.124196,-0.07,0.21000000000000002,0.6475000000000001,-0.4659456299327682,0.007892429114294067,-0.1965799473838059
1747152343.723068,0.995642,0.000244,0.124074,-0.12250000000000001,0.21000000000000002,0.6300000000000001,-0.4659456299327682,0.007892429114294067,-0.1965799473838059
1747152343.7286558,0.99613,0.000122,0.125904,-0.052500000000000005,0.22750000000000004,0.6475000000000001,-0.4659456299327682,0.007892429114294067,-0.1965799473838059
1747152343.7328062,0.997472,-0.00061,0.12456199999999999,-0.12250000000000001,0.1925,0.6300000000000001,-0.4659456299327682,0.007892429114294067,-0.1965799473838059
1747152343.7376747,0.99613,0.000488,0.125904,-0.17500000000000002,0.14,0.5775,-0.4659456299327682,0.007892429114294067,-0.1965799473838059
1747152343.7425468,0.9971059999999999,0.0013419999999999999,0.125172,-0.21000000000000002,0.2625,0.7175,-0.467699503069278,0.00467699503069278,-0.1908798596901491
1747152343.7474163,0.998082,-0.002196,0.125538,-0.22750000000000004,0.1925,0.5950000000000001,-0.467699503069278,0.00467699503069278,-0.1908798596901491
1747152343.7522876,0.996618,0.000488,0.12456199999999999,-0.14,0.28,0.7525000000000001,-0.467699503069278,0.00467699503069278,-0.1908798596901491
1747152343.7571635,0.9983259999999999,0.00061,0.126026,-0.10500000000000001,0.21000000000000002,0.6475000000000001,-0.467699503069278,0.00467699503069278,-0.1908798596901491
1747152343.7620337,0.99796,-0.000732,0.124928,-0.12250000000000001,0.12250000000000001,0.6825000000000001,-0.467699503069278,0.00467699503069278,-0.1908798596901491
1747152343.7669,0.997472,0.00061,0.124928,-0.10500000000000001,0.17500000000000002,0.665,-0.467699503069278,0.00467699503069278,-0.1908798596901491
1747152343.7717757,0.997228,-0.000122,0.123708,-0.15750000000000003,0.1925,0.6475000000000001,-0.467699503069278,0.00467699503069278,-0.1908798596901491
1747152343.7766473,0.998814,0.000976,0.12456199999999999,-0.08750000000000001,0.1925,0.6125,-0.467699503069278,0.00467699503069278,-0.1908798596901491
1747152343.7822328,0.997472,-0.000122,0.125172,-0.052500000000000005,0.21000000000000002,0.6300000000000001,-0.467699503069278,0.00467699503069278,-0.1908798596901491
1747152343.7863913,0.997472,-0.00122,0.12444,-0.12250000000000001,0.17500000000000002,0.5950000000000001,-0.467699503069278,0.00467699503069278,-0.1908798596901491
1747152343.7912724,0.996618,0.0013419999999999999,0.126636,-0.07,0.035,0.5425000000000001,-0.47003800058462436,0.00029231218941829873,-0.19277988892136802
1747152343.7961442,0.996984,-0.000122,0.12566,-0.0175,0.22750000000000004,0.6125,-0.47003800058462436,0.00029231218941829873,-0.19277988892136802
1747152343.8010266,0.997472,-0.000244,0.125294,0.0,0.12250000000000001,0.56,-0.47003800058462436,0.00029231218941829873,-0.19277988892136802
1747152343.8058856,0.998204,-0.000122,0.126148,-0.0175,0.15750000000000003,0.5950000000000001,-0.47003800058462436,0.00029231218941829873,-0.19277988892136802
1747152343.810754,0.997472,-0.000122,0.125416,0.0,0.1925,0.6300000000000001,-0.47003800058462436,0.00029231218941829873,-0.19277988892136802
1747152343.8156285,0.998814,-0.00061,0.126636,0.07,0.12250000000000001,0.665,-0.47003800058462436,0.00029231218941829873,-0.19277988892136802
1747152343.8204982,0.998082,-0.000976,0.12444,0.052500000000000005,0.21000000000000002,0.6475000000000001,-0.47003800058462436,0.00029231218941829873,-0.19277988892136802
1747152343.8253703,0.997594,0.0,0.125538,0.035,0.17500000000000002,0.5950000000000001,-0.47003800058462436,0.00029231218941829873,-0.19277988892136802
1747152343.830246,0.998082,0.000732,0.124074,-0.0175,0.1925,0.6825000000000001,-0.47003800058462436,0.00029231218941829873,-0.19277988892136802
1747152343.8358443,0.9977159999999999,-0.000366,0.125904,-0.07,0.12250000000000001,0.5950000000000001,-0.4659456299327682,0.003215434083601286,-0.195703010815551
1747152343.8399909,0.99674,-0.000732,0.125904,-0.0175,0.10500000000000001,0.56,-0.4659456299327682,0.003215434083601286,-0.195703010815551
1747152343.844855,0.998204,0.000488,0.125904,0.07,0.10500000000000001,0.6475000000000001,-0.4659456299327682,0.003215434083601286,-0.195703010815551
1747152343.8497355,0.996618,0.00183,0.123098,-0.0175,0.12250000000000001,0.5775,-0.4659456299327682,0.003215434083601286,-0.195703010815551
1747152343.8546038,0.995764,-0.00244,0.124928,0.0,0.12250000000000001,0.6825000000000001,-0.4659456299327682,0.003215434083601286,-0.195703010815551
1747152343.8594775,0.9971059999999999,-0.000366,0.125416,0.0175,0.21000000000000002,0.6825000000000001,-0.4659456299327682,0.003215434083601286,-0.195703010815551
1747152343.8643498,0.997594,-0.000366,0.124074,-0.07,0.15750000000000003,0.6825000000000001,-0.4659456299327682,0.003215434083601286,-0.195703010815551
1747152343.8692195,0.996374,-0.001098,0.126392,-0.10500000000000001,0.17500000000000002,0.665,-0.4659456299327682,0.003215434083601286,-0.195703010815551
1747152343.8740907,0.99613,-0.000732,0.125172,-0.14,0.15750000000000003,0.6125,-0.4659456299327682,0.003215434083601286,-0.195703010815551
1747152343.8789656,0.99796,-0.001952,0.126514,-0.12250000000000001,0.24500000000000002,0.5775,-0.4659456299327682,0.003215434083601286,-0.195703010815551
1747152343.883839,0.9971059999999999,-0.000488,0.12444,-0.15750000000000003,0.14,0.525,-0.46039169833382054,-0.0017538731365097924,-0.19000292312189418
1747152343.889435,0.999302,-0.001098,0.125416,-0.17500000000000002,0.43750000000000006,0.665,-0.46039169833382054,-0.0017538731365097924,-0.19000292312189418
1747152343.893588,0.999302,-0.001098,0.125416,-0.12250000000000001,0.3325,0.5425000000000001,-0.46039169833382054,-0.0017538731365097924,-0.19000292312189418
1747152343.898456,0.99796,-0.029523999999999998,0.125538,-0.035,0.31500000000000006,0.6300000000000001,-0.46039169833382054,-0.0017538731365097924,-0.19000292312189418
1747152343.9033294,0.9983259999999999,-0.00122,0.12395199999999999,-0.052500000000000005,0.24500000000000002,0.6475000000000001,-0.46039169833382054,-0.0017538731365097924,-0.19000292312189418
1747152343.9082034,0.995642,-0.000122,0.125904,-0.052500000000000005,0.24500000000000002,0.5950000000000001,-0.46039169833382054,-0.0017538731365097924,-0.19000292312189418
1747152343.913076,0.9971059999999999,-0.00122,0.12505,-0.052500000000000005,0.1925,0.5775,-0.46039169833382054,-0.0017538731365097924,-0.19000292312189418
1747152343.9179454,0.997838,0.001098,0.126636,-0.035,0.24500000000000002,0.6300000000000001,-0.46039169833382054,-0.0017538731365097924,-0.19000292312189418
1747152343.9228177,0.996374,-0.0013419999999999999,0.124928,-0.0175,0.10500000000000001,0.5950000000000001,-0.46039169833382054,-0.0017538731365097924,-0.19000292312189418
1747152343.9276915,0.996374,0.000732,0.125538,-0.035,0.08750000000000001,0.5950000000000001,-0.4656533177433499,-0.00964630225080386,-0.19073370359543992
1747152343.9325593,0.99674,-0.00061,0.126026,0.0175,0.035,0.6300000000000001,-0.4656533177433499,-0.00964630225080386,-0.19073370359543992
1747152343.9374335,0.996618,0.000244,0.122732,-0.0175,0.12250000000000001,0.6825000000000001,-0.4656533177433499,-0.00964630225080386,-0.19073370359543992
1747152343.9430442,0.997594,0.000488,0.124684,0.0,0.08750000000000001,0.7000000000000001,-0.4656533177433499,-0.00964630225080386,-0.19073370359543992
1747152343.9471788,0.9964959999999999,-0.000122,0.125416,-0.035,0.15750000000000003,0.6825000000000001,-0.4656533177433499,-0.00964630225080386,-0.19073370359543992
1747152343.9520478,0.996618,0.0,0.124806,-0.052500000000000005,0.14,0.5950000000000001,-0.4656533177433499,-0.00964630225080386,-0.19073370359543992
1747152343.9569178,0.9983259999999999,-0.001586,0.126758,0.0,0.10500000000000001,0.6125,-0.4656533177433499,-0.00964630225080386,-0.19073370359543992
1747152343.9617906,0.998692,0.000488,0.126392,-0.0175,0.17500000000000002,0.5950000000000001,-0.4656533177433499,-0.00964630225080386,-0.19073370359543992
1747152343.966661,0.99857,-0.000366,0.12627,0.0175,0.12250000000000001,0.6125,-0.4656533177433499,-0.00964630225080386,-0.19073370359543992
1747152343.9715347,0.9977159999999999,0.000244,0.126514,0.0175,0.10500000000000001,0.5425000000000001,-0.4656533177433499,-0.00964630225080386,-0.19073370359543992
1747152343.9764063,0.99735,-0.000488,0.12444,-0.035,0.12250000000000001,0.6300000000000001,-0.4636071324174218,0.005261619409529378,-0.1856182402806197
1747152343.981277,0.996618,-0.0013419999999999999,0.124806,-0.035,0.15750000000000003,0.5950000000000001,-0.4636071324174218,0.005261619409529378,-0.1856182402806197
1747152343.986156,0.997472,-0.0026839999999999998,0.12505,-0.052500000000000005,0.21000000000000002,0.6300000000000001,-0.4636071324174218,0.005261619409529378,-0.1856182402806197
1747152343.9910305,0.995398,-0.000122,0.127246,-0.035,0.22750000000000004,0.6125,-0.4636071324174218,0.005261619409529378,-0.1856182402806197
1747152343.996646,0.9964959999999999,-0.000122,0.125538,-0.052500000000000005,0.1925,0.6300000000000001,-0.4636071324174218,0.005261619409529378,-0.1856182402806197
1747152344.0007675,0.996984,-0.001464,0.125538,-0.12250000000000001,0.2625,0.665,-0.4636071324174218,0.005261619409529378,-0.1856182402806197
1747152344.0056372,0.996374,-0.0017079999999999999,0.124806,-0.10500000000000001,0.21000000000000002,0.6825000000000001,-0.4636071324174218,0.005261619409529378,-0.1856182402806197
1747152344.010509,0.99674,0.000976,0.125416,-0.08750000000000001,0.17500000000000002,0.665,-0.4636071324174218,0.005261619409529378,-0.1856182402806197
1747152344.0153866,0.9958859999999999,0.0,0.12627,-0.12250000000000001,0.15750000000000003,0.665,-0.4636071324174218,0.005261619409529378,-0.1856182402806197
1747152344.0202513,0.995642,0.000488,0.125904,-0.21000000000000002,0.2625,0.6475000000000001,-0.4636071324174218,0.005261619409529378,-0.1856182402806197
1747152344.0251234,0.9964959999999999,0.00061,0.12566,-0.052500000000000005,0.14,0.5425000000000001,-0.45980707395498394,0.0020461853259280912,-0.18751826951183864
1747152344.030001,0.9964959999999999,-0.000976,0.12395199999999999,-0.14,0.31500000000000006,0.7350000000000001,-0.45980707395498394,0.0020461853259280912,-0.18751826951183864
1747152344.0348742,0.9977159999999999,0.000244,0.124074,-0.14,0.2625,0.6300000000000001,-0.45980707395498394,0.0020461853259280912,-0.18751826951183864
1747152344.0397484,0.997594,0.00122,0.125416,-0.14,0.17500000000000002,0.6300000000000001,-0.45980707395498394,0.0020461853259280912,-0.18751826951183864
1747152344.044619,0.9983259999999999,-0.000976,0.124928,-0.12250000000000001,0.17500000000000002,0.6475000000000001,-0.45980707395498394,0.0020461853259280912,-0.18751826951183864
1747152344.0502021,0.999912,-0.003172,0.12395199999999999,-0.12250000000000001,0.15750000000000003,0.6300000000000001,-0.45980707395498394,0.0020461853259280912,-0.18751826951183864
1747152344.0543628,0.99735,-0.0008539999999999999,0.12444,-0.07,0.17500000000000002,0.6125,-0.45980707395498394,0.0020461853259280912,-0.18751826951183864
1747152344.0592332,0.996984,0.0013419999999999999,0.126392,-0.08750000000000001,0.15750000000000003,0.6125,-0.45980707395498394,0.0020461853259280912,-0.18751826951183864
1747152344.064108,0.995398,0.0,0.123586,-0.0175,0.2625,0.7525000000000001,-0.45980707395498394,0.0020461853259280912,-0.18751826951183864
1747152344.068981,0.998692,-0.000366,0.12456199999999999,0.0,0.21000000000000002,0.6475000000000001,-0.4653610055539316,0.0070154925460391695,-0.19014907921660334
1747152344.0738494,0.996618,0.000244,0.12456199999999999,0.0175,0.07,0.5425000000000001,-0.4653610055539316,0.0070154925460391695,-0.19014907921660334
1747152344.078721,0.9983259999999999,0.001586,0.12627,0.0,0.15750000000000003,0.6300000000000001,-0.4653610055539316,0.0070154925460391695,-0.19014907921660334
1747152344.0835943,0.998204,-0.0013419999999999999,0.126392,-0.0175,0.08750000000000001,0.5775,-0.4653610055539316,0.0070154925460391695,-0.19014907921660334
1747152344.0884628,0.998082,0.000244,0.12627,0.0,0.12250000000000001,0.6825000000000001,-0.4653610055539316,0.0070154925460391695,-0.19014907921660334
1747152344.0933356,0.997472,0.00061,0.125782,0.0175,0.1925,0.6475000000000001,-0.4653610055539316,0.0070154925460391695,-0.19014907921660334
1747152344.0982115,0.999058,-0.00183,0.125294,0.052500000000000005,0.1925,0.6125,-0.4653610055539316,0.0070154925460391695,-0.19014907921660334
1747152344.1037984,0.99674,0.000366,0.124928,0.0,0.1925,0.6300000000000001,-0.4653610055539316,0.0070154925460391695,-0.19014907921660334
1747152344.1079533,0.996618,0.000976,0.126758,0.0,0.1925,0.6300000000000001,-0.4653610055539316,0.0070154925460391695,-0.19014907921660334
1747152344.1128287,0.995764,-0.000122,0.125782,4.3925,0.10500000000000001,0.6825000000000001,-0.4653610055539316,0.0070154925460391695,-0.19014907921660334
1747152344.1176996,0.997594,-0.000122,0.126026,-0.0175,0.035,0.56,-0.4712072493422976,0.008769365682548963,-0.18605670856474715
1747152344.1225727,0.996862,-0.002074,0.12395199999999999,0.0,0.24500000000000002,0.7350000000000001,-0.4712072493422976,0.008769365682548963,-0.18605670856474715
1747152344.1274447,0.996984,-0.001586,0.12566,-0.052500000000000005,0.24500000000000002,0.6125,-0.4712072493422976,0.008769365682548963,-0.18605670856474715
1747152344.1323612,0.997228,-0.000366,0.125416,-0.052500000000000005,0.15750000000000003,0.6300000000000001,-0.4712072493422976,0.008769365682548963,-0.18605670856474715
1747152344.137225,0.996862,0.0,0.12444,-0.052500000000000005,0.21000000000000002,0.6300000000000001,-0.4712072493422976,0.008769365682548963,-0.18605670856474715
1747152344.1420953,0.9983259999999999,-0.001464,0.127124,-0.0175,0.12250000000000001,0.6300000000000001,-0.4712072493422976,0.008769365682548963,-0.18605670856474715
1747152344.1469643,0.997594,-0.000976,0.124196,0.035,0.14,0.6300000000000001,-0.4712072493422976,0.008769365682548963,-0.18605670856474715
1747152344.1518404,0.997838,0.000976,0.125172,0.035,0.08750000000000001,0.5950000000000001,-0.4712072493422976,0.008769365682548963,-0.18605670856474715
1747152344.1574366,0.996252,0.000366,0.12383,0.035,0.12250000000000001,0.6125,-0.4712072493422976,0.008769365682548963,-0.18605670856474715
1747152344.1615837,0.997838,-0.001098,0.12749,0.0175,0.22750000000000004,0.665,-0.4712072493422976,-0.028646594562993278,-0.19014907921660334
1747152344.166457,0.99735,-0.000488,0.12456199999999999,0.0175,0.10500000000000001,0.5075000000000001,-0.46243788365974864,-0.0017538731365097924,-0.19014907921660334
1747152344.1713285,0.997472,0.000976,0.124928,-0.07,0.28,0.665,-0.46243788365974864,-0.0017538731365097924,-0.19014907921660334
1747152344.1761968,0.997228,-0.001098,0.124806,-0.08750000000000001,0.22750000000000004,0.5775,-0.46243788365974864,-0.0017538731365097924,-0.19014907921660334
1747152344.181071,0.997594,-0.001464,0.124928,-0.035,0.1925,0.5950000000000001,-0.46243788365974864,-0.0017538731365097924,-0.19014907921660334
1747152344.1859453,0.99735,-0.001464,0.125904,-0.08750000000000001,0.21000000000000002,0.6300000000000001,-0.46243788365974864,-0.0017538731365097924,-0.19014907921660334
1747152344.190817,0.9983259999999999,0.0013419999999999999,0.12395199999999999,-0.052500000000000005,0.15750000000000003,0.6300000000000001,-0.46243788365974864,-0.0017538731365097924,-0.19014907921660334
1747152344.1956923,0.998204,-0.002074,0.125538,-0.08750000000000001,0.1925,0.5775,-0.46243788365974864,-0.0017538731365097924,-0.19014907921660334
1747152344.2005594,0.997472,0.000122,0.12688,-0.10500000000000001,0.17500000000000002,0.6125,-0.46243788365974864,-0.0017538731365097924,-0.19014907921660334
1747152344.205436,0.997472,0.001098,0.125904,-0.12250000000000001,0.1925,0.6825000000000001,-0.46243788365974864,-0.0017538731365097924,-0.19014907921660334
1747152344.2110367,0.996374,0.000488,0.127734,-0.08750000000000001,0.10500000000000001,0.5775,-0.4621455714703303,-0.006723180356620871,-0.19014907921660334
1747152344.215178,0.99857,-0.000244,0.126636,-0.12250000000000001,0.10500000000000001,0.5775,-0.4621455714703303,-0.006723180356620871,-0.19014907921660334
1747152344.2200499,0.997594,-0.000732,0.126148,-0.14,0.28,0.6825000000000001,-0.4621455714703303,-0.006723180356620871,-0.19014907921660334
1747152344.2249177,0.9971059999999999,0.000122,0.124928,-0.14,0.1925,0.6300000000000001,-0.4621455714703303,-0.006723180356620871,-0.19014907921660334
1747152344.2297888,0.99796,0.0023179999999999997,0.125782,-0.15750000000000003,0.1925,0.5950000000000001,-0.4621455714703303,-0.006723180356620871,-0.19014907921660334
1747152344.2346606,0.998814,0.000366,0.124684,-0.15750000000000003,0.14,0.665,-0.4621455714703303,-0.006723180356620871,-0.19014907921660334
1747152344.2395346,0.9977159999999999,-0.00061,0.125294,-0.10500000000000001,0.15750000000000003,0.6825000000000001,-0.4621455714703303,-0.006723180356620871,-0.19014907921660334
1747152344.2444053,0.9958859999999999,-0.000366,0.125172,-0.10500000000000001,0.12250000000000001,0.6125,-0.4621455714703303,-0.006723180356620871,-0.19014907921660334
1747152344.2492766,0.99674,0.00122,0.125172,-0.10500000000000001,0.14,0.5425000000000001,-0.4621455714703303,-0.006723180356620871,-0.19014907921660334
1747152344.254147,0.998448,-0.000976,0.126636,-0.0175,0.22750000000000004,0.6300000000000001,-0.4621455714703303,-0.006723180356620871,-0.19014907921660334
1747152344.25903,0.997472,-0.000488,0.125416,-0.0175,0.14,0.5775,-0.467699503069278,0.0005846243788365975,-0.195703010815551
1747152344.2705112,0.997594,-0.001586,0.125172,-0.07,0.24500000000000002,0.7175,-0.467699503069278,0.0005846243788365975,-0.195703010815551
1747152344.27346,0.9977159999999999,-0.00061,0.126514,-0.035,0.08750000000000001,0.5425000000000001,-0.467699503069278,0.0005846243788365975,-0.195703010815551
1747152344.278326,0.997594,-0.0017079999999999999,0.124928,0.0,0.035,0.6125,-0.467699503069278,0.0005846243788365975,-0.195703010815551
1747152344.283193,0.996862,0.001098,0.12688,-0.07,0.24500000000000002,0.7000000000000001,-0.467699503069278,0.0005846243788365975,-0.195703010815551
1747152344.2880702,0.9983259999999999,-0.000244,0.125416,0.0,0.17500000000000002,0.6125,-0.467699503069278,0.0005846243788365975,-0.195703010815551
1747152344.2929375,0.996984,0.000488,0.124928,-0.035,0.21000000000000002,0.6125,-0.467699503069278,0.0005846243788365975,-0.195703010815551
1747152344.2978082,0.997594,0.000366,0.12688,-0.052500000000000005,0.17500000000000002,0.5775,-0.467699503069278,0.0005846243788365975,-0.195703010815551
1747152344.3026843,0.9989359999999999,0.000732,0.126148,0.0175,0.10500000000000001,0.5950000000000001,-0.4627301958491669,0.0,-0.19964922537269805
1747152344.3075674,0.99735,0.000488,0.126026,-0.0175,0.052500000000000005,0.49000000000000005,-0.4627301958491669,0.0,-0.19964922537269805
1747152344.3124297,0.996984,0.002074,0.126392,-0.10500000000000001,0.21000000000000002,0.6300000000000001,-0.4627301958491669,0.0,-0.19964922537269805
1747152344.317304,0.9989359999999999,-0.000732,0.125904,-0.17500000000000002,0.17500000000000002,0.5425000000000001,-0.4627301958491669,0.0,-0.19964922537269805
1747152344.3251202,0.9989359999999999,-0.002562,0.12688,-0.22750000000000004,0.2625,0.6300000000000001,-0.4627301958491669,0.0,-0.19964922537269805
1747152344.3280437,0.996008,-0.0013419999999999999,0.124318,0.0,0.29750000000000004,0.665,-0.4627301958491669,0.0,-0.19964922537269805
1747152344.3329139,0.996008,-0.000488,0.124074,0.12250000000000001,0.08750000000000001,0.5775,-0.4627301958491669,0.0,-0.19964922537269805
1747152344.3377838,0.997472,-0.000244,0.12566,0.035,0.08750000000000001,0.56,-0.4627301958491669,0.0,-0.19964922537269805
1747152344.3426583,0.9983259999999999,0.0013419999999999999,0.127124,-0.0175,0.15750000000000003,0.665,-0.4627301958491669,0.0,-0.19964922537269805
1747152344.3475277,0.9971059999999999,-0.000244,0.127368,0.035,0.17500000000000002,0.6475000000000001,-0.4627301958491669,0.0,-0.19964922537269805
1747152344.3523948,0.9952759999999999,-0.000488,0.126026,0.035,0.08750000000000001,0.5775,-0.4627301958491669,-0.00029231218941829873,-0.1905875475007308
1747152344.3572655,0.99674,0.0,0.12627,0.0,0.17500000000000002,0.7000000000000001,-0.4627301958491669,-0.00029231218941829873,-0.1905875475007308
1747152344.3621402,0.9943,0.000976,0.124318,0.052500000000000005,0.12250000000000001,0.7000000000000001,-0.4627301958491669,-0.00029231218941829873,-0.1905875475007308
1747152344.3670144,0.997594,-0.000366,0.125294,-0.0175,0.10500000000000001,0.6475000000000001,-0.4627301958491669,-0.00029231218941829873,-0.1905875475007308
1747152344.3718846,0.997472,0.0,0.124318,0.0175,0.08750000000000001,0.7000000000000001,-0.4627301958491669,-0.00029231218941829873,-0.1905875475007308
1747152344.3791003,0.998082,-0.00061,0.126392,0.0175,0.15750000000000003,0.6475000000000001,-0.4627301958491669,-0.00029231218941829873,-0.1905875475007308
1747152344.382058,0.998082,-0.001586,0.125416,-0.0175,0.1925,0.6475000000000001,-0.4627301958491669,-0.00029231218941829873,-0.1905875475007308
1747152344.386925,0.99796,-0.001464,0.12505,0.035,0.14,0.5075000000000001,-0.4627301958491669,-0.00029231218941829873,-0.1905875475007308
1747152344.3917918,0.99613,-0.000244,0.12566,0.0,0.14,0.6475000000000001,-0.4627301958491669,-0.00029231218941829873,-0.1905875475007308
1747152344.3966627,0.99735,-0.000122,0.124074,0.0,0.1925,0.6300000000000001,-0.4662379421221865,0.008184741303712365,-0.18927214264834843
1747152344.4015439,0.998448,0.000976,0.12456199999999999,-0.052500000000000005,0.12250000000000001,0.5075000000000001,-0.4662379421221865,0.008184741303712365,-0.18927214264834843
1747152344.406411,0.997228,0.001464,0.12627,-0.0175,0.21000000000000002,0.5950000000000001,-0.4662379421221865,0.008184741303712365,-0.18927214264834843
1747152344.411282,0.997472,-0.000976,0.12505,0.052500000000000005,0.22750000000000004,0.6475000000000001,-0.4662379421221865,0.008184741303712365,-0.18927214264834843
1747152344.416154,0.9977159999999999,-0.0013419999999999999,0.124196,0.0,0.17500000000000002,0.6300000000000001,-0.4662379421221865,0.008184741303712365,-0.18927214264834843
1747152344.4210274,0.9971059999999999,-0.0008539999999999999,0.125782,0.0,0.2625,0.6300000000000001,-0.4662379421221865,0.008184741303712365,-0.18927214264834843
1747152344.4259188,0.9958859999999999,0.00061,0.125904,0.052500000000000005,0.15750000000000003,0.5775,-0.4662379421221865,0.008184741303712365,-0.18927214264834843
1747152344.4321797,0.998204,0.003294,0.126636,-0.15750000000000003,0.15750000000000003,0.6125,-0.4662379421221865,0.008184741303712365,-0.18927214264834843
1747152344.4356437,0.998204,0.003294,0.126636,0.035,0.10500000000000001,0.7175,-0.4662379421221865,0.008184741303712365,-0.18927214264834843
1747152344.4405203,0.997228,-0.000122,0.124928,0.035,0.10500000000000001,0.6475000000000001,-0.4662379421221865,0.008184741303712365,-0.18927214264834843
1747152344.4453912,0.99674,-0.00122,0.12566,0.0175,0.035,0.525,-0.4630225080385852,0.003800058462437884,-0.1873721134171295
1747152344.4502633,0.99857,-0.002196,0.124928,-0.08750000000000001,0.1925,0.6825000000000001,-0.4630225080385852,0.003800058462437884,-0.1873721134171295
1747152344.455134,0.997594,-0.0008539999999999999,0.125172,-0.14,0.21000000000000002,0.6475000000000001,-0.4630225080385852,0.003800058462437884,-0.1873721134171295
1747152344.4600122,0.997594,-0.000976,0.125538,-0.22750000000000004,0.21000000000000002,0.6300000000000001,-0.4630225080385852,0.003800058462437884,-0.1873721134171295
1747152344.464877,0.9971059999999999,-0.001586,0.12505,-0.08750000000000001,0.22750000000000004,0.6825000000000001,-0.4630225080385852,0.003800058462437884,-0.1873721134171295
1747152344.469751,0.996008,-0.000366,0.124806,-0.08750000000000001,0.17500000000000002,0.6475000000000001,-0.4630225080385852,0.003800058462437884,-0.1873721134171295
1747152344.4746263,0.996984,-0.00122,0.12383,-0.10500000000000001,0.1925,0.6300000000000001,-0.4630225080385852,0.003800058462437884,-0.1873721134171295
1747152344.479498,0.9977159999999999,0.000244,0.126148,-0.08750000000000001,0.21000000000000002,0.5775,-0.4630225080385852,0.003800058462437884,-0.1873721134171295
1747152344.4852517,0.997472,-0.000976,0.12456199999999999,-0.15750000000000003,0.1925,0.6125,-0.4630225080385852,0.003800058462437884,-0.1873721134171295
1747152344.4892402,0.995398,0.000244,0.122976,-0.10500000000000001,0.21000000000000002,0.6475000000000001,-0.4630225080385852,0.003800058462437884,-0.1873721134171295
1747152344.4941092,0.9977159999999999,0.000244,0.124318,-0.035,0.0175,0.43750000000000006,-0.4606840105232388,-0.0020461853259280912,-0.18810289389067525
1747152344.498985,0.998204,-0.001464,0.124196,-0.07,0.15750000000000003,0.6300000000000001,-0.4606840105232388,-0.0020461853259280912,-0.18810289389067525
1747152344.5038571,0.996374,0.000122,0.125538,-0.12250000000000001,0.24500000000000002,0.665,-0.4606840105232388,-0.0020461853259280912,-0.18810289389067525
1747152344.5087261,0.9971059999999999,0.001952,0.12566,-0.10500000000000001,0.21000000000000002,0.6125,-0.4606840105232388,-0.0020461853259280912,-0.18810289389067525
1747152344.5135984,0.99674,-0.00061,0.127978,-0.035,0.1925,0.6300000000000001,-0.4606840105232388,-0.0020461853259280912,-0.18810289389067525
1747152344.518473,0.99735,-0.0008539999999999999,0.126392,-0.10500000000000001,0.24500000000000002,0.665,-0.4606840105232388,-0.0020461853259280912,-0.18810289389067525
1747152344.5233452,0.9977159999999999,-0.000244,0.126026,-0.08750000000000001,0.14,0.6300000000000001,-0.4606840105232388,-0.0020461853259280912,-0.18810289389067525
1747152344.5282135,0.9964959999999999,-0.001586,0.12505,0.0,0.12250000000000001,0.6300000000000001,-0.4606840105232388,-0.0020461853259280912,-0.18810289389067525
1747152344.533088,0.9977159999999999,0.000366,0.12444,-0.052500000000000005,0.14,0.6125,-0.4606840105232388,-0.0020461853259280912,-0.18810289389067525
1747152344.5387666,0.999058,0.000488,0.125904,0.0,0.0,0.5425000000000001,-0.4636071324174218,-0.006723180356620871,-0.19248757673194972
1747152344.5428333,0.9971059999999999,0.000976,0.124196,0.0,0.0,0.6475000000000001,-0.4636071324174218,-0.006723180356620871,-0.19248757673194972
1747152344.547707,0.997838,-0.0013419999999999999,0.127612,4.322500000000001,0.21000000000000002,0.6475000000000001,-0.4636071324174218,-0.006723180356620871,-0.19248757673194972
1747152344.552578,0.9977159999999999,-0.001464,0.123586,0.052500000000000005,0.15750000000000003,0.665,-0.4636071324174218,-0.006723180356620871,-0.19248757673194972
1747152344.5574503,0.996862,0.000366,0.124684,0.052500000000000005,0.14,0.6300000000000001,-0.4636071324174218,-0.006723180356620871,-0.19248757673194972
1747152344.562322,0.997472,-0.0008539999999999999,0.125904,0.035,0.08750000000000001,0.6475000000000001,-0.4636071324174218,-0.006723180356620871,-0.19248757673194972
1747152344.567193,0.998082,-0.000366,0.12505,0.052500000000000005,0.15750000000000003,0.665,-0.4636071324174218,-0.006723180356620871,-0.19248757673194972
1747152344.5720656,0.99796,-0.0023179999999999997,0.124806,0.0175,0.22750000000000004,0.6300000000000001,-0.4636071324174218,-0.006723180356620871,-0.19248757673194972
1747152344.576933,0.99735,-0.001098,0.125172,0.0175,0.1925,0.6300000000000001,-0.4636071324174218,-0.006723180356620871,-0.19248757673194972
1747152344.5818043,0.998082,-0.000488,0.126148,0.07,0.15750000000000003,0.5775,-0.4636071324174218,-0.006723180356620871,-0.19248757673194972
1747152344.5866818,0.9971059999999999,-0.000366,0.124318,0.0,0.10500000000000001,0.49000000000000005,-0.4615609470914937,-0.006723180356620871,-0.19000292312189418
1747152344.5922687,0.998692,-0.0008539999999999999,0.126392,-0.07,0.21000000000000002,0.6825000000000001,-0.4615609470914937,-0.006723180356620871,-0.19000292312189418
1747152344.5964236,0.9964959999999999,-0.000488,0.124318,0.0,0.2625,0.6825000000000001,-0.4615609470914937,-0.006723180356620871,-0.19000292312189418
1747152344.6012945,0.998204,0.00061,0.126514,-0.0175,0.1925,0.5950000000000001,-0.4615609470914937,-0.006723180356620871,-0.19000292312189418
1747152344.6061668,0.9977159999999999,-0.001586,0.124806,-0.12250000000000001,0.1925,0.6125,-0.4615609470914937,-0.006723180356620871,-0.19000292312189418
1747152344.6110368,0.997838,-0.001952,0.125904,-0.17500000000000002,0.2625,0.665,-0.4615609470914937,-0.006723180356620871,-0.19000292312189418
1747152344.6159048,0.996374,-0.0013419999999999999,0.12566,-0.12250000000000001,0.2625,0.6825000000000001,-0.4615609470914937,-0.006723180356620871,-0.19000292312189418
1747152344.6207807,0.998814,0.000122,0.125416,-0.12250000000000001,0.1925,0.5950000000000001,-0.4615609470914937,-0.006723180356620871,-0.19000292312189418
1747152344.6256585,0.9958859999999999,0.0,0.124806,-0.14,0.17500000000000002,0.5425000000000001,-0.4615609470914937,-0.006723180356620871,-0.19000292312189418
1747152344.6305356,0.996984,0.0017079999999999999,0.125172,-0.17500000000000002,0.21000000000000002,0.6300000000000001,-0.4615609470914937,-0.0014615609470914938,-0.19204910844782228
1747152344.635402,0.998814,-0.000244,0.12566,-0.052500000000000005,0.14,0.56,-0.4688687518269512,-0.0014615609470914938,-0.19204910844782228
1747152344.6402748,0.997594,0.000488,0.124074,-0.08750000000000001,0.22750000000000004,0.7000000000000001,-0.4688687518269512,-0.0014615609470914938,-0.19204910844782228
1747152344.6458676,0.997228,-0.000976,0.12627,-0.10500000000000001,0.22750000000000004,0.7175,-0.4688687518269512,-0.0014615609470914938,-0.19204910844782228
1747152344.6500196,0.996618,0.000366,0.126392,-0.10500000000000001,0.22750000000000004,0.7175,-0.4688687518269512,-0.0014615609470914938,-0.19204910844782228
1747152344.6548927,0.997594,-0.001098,0.126636,-0.10500000000000001,0.1925,0.6125,-0.4688687518269512,-0.0014615609470914938,-0.19204910844782228
1747152344.659762,0.99613,-0.001098,0.12566,-0.052500000000000005,0.15750000000000003,0.5425000000000001,-0.4688687518269512,-0.0014615609470914938,-0.19204910844782228
1747152344.6646385,0.997228,0.000976,0.124684,-0.035,0.21000000000000002,0.665,-0.4688687518269512,-0.0014615609470914938,-0.19204910844782228
1747152344.6695085,0.996862,-0.000366,0.124684,-0.035,0.17500000000000002,0.665,-0.4688687518269512,-0.0014615609470914938,-0.19204910844782228
1747152344.6743798,0.99979,-0.0017079999999999999,0.12456199999999999,0.0,0.12250000000000001,0.6300000000000001,-0.4688687518269512,-0.0014615609470914938,-0.19204910844782228
1747152344.6792653,0.999058,-0.000488,0.12566,0.0175,0.10500000000000001,0.56,-0.46243788365974864,-0.005261619409529378,-0.19277988892136802
1747152344.684123,0.99735,0.001098,0.124196,0.07,0.17500000000000002,0.6475000000000001,-0.46243788365974864,-0.005261619409529378,-0.19277988892136802
1747152344.688994,0.9977159999999999,-0.00122,0.127612,0.0,0.1925,0.6300000000000001,-0.46243788365974864,-0.005261619409529378,-0.19277988892136802
1747152344.6938696,0.99796,-0.0026839999999999998,0.127978,0.0175,0.15750000000000003,0.6300000000000001,-0.46243788365974864,-0.005261619409529378,-0.19277988892136802
1747152344.6994553,0.999424,-0.000366,0.125538,0.035,0.14,0.6475000000000001,-0.46243788365974864,-0.005261619409529378,-0.19277988892136802
1747152344.7036111,0.997838,-0.00122,0.125416,0.0175,0.15750000000000003,0.6475000000000001,-0.46243788365974864,-0.005261619409529378,-0.19277988892136802
1747152344.7084825,0.9964959999999999,-0.00061,0.12566,0.052500000000000005,0.17500000000000002,0.665,-0.46243788365974864,-0.005261619409529378,-0.19277988892136802
1747152344.7133539,0.998204,-0.0017079999999999999,0.12505,0.0175,0.14,0.6475000000000001,-0.46243788365974864,-0.005261619409529378,-0.19277988892136802
