Timestamp,Accel X,Accel Y,Accel Z,Gyro X,Gyro Y,Gyro Z,Magneto X,Magneto Y,Magneto Z
1742916962.9400358,1.005646,0.0026839999999999998,0.021228,-0.0175,0.10500000000000001,0.31500000000000006,-0.22098801520023384,0.17246419175679625,-0.15667933352820812
1742916962.9448473,1.00589,0.004514,0.021594,-0.08750000000000001,-0.31500000000000006,-0.43750000000000006,-0.21981876644256065,0.1847413037123648,-0.15638702133878982
1742916962.9497292,1.006378,0.003294,0.021106,-0.07,-0.08750000000000001,0.7000000000000001,-0.21981876644256065,0.1847413037123648,-0.15638702133878982
1742916962.9545789,1.005524,0.0034159999999999998,0.02135,-0.035,0.525,0.7350000000000001,-0.21981876644256065,0.1847413037123648,-0.15638702133878982
1742916962.959446,1.00528,0.0057339999999999995,0.020374,-0.035,0.4025,0.7525000000000001,-0.21981876644256065,0.1847413037123648,-0.15638702133878982
1742916962.964317,1.006012,0.003904,0.019275999999999998,-0.035,0.31500000000000006,0.7000000000000001,-0.21981876644256065,0.1847413037123648,-0.15638702133878982
1742916962.96919,1.006622,0.00366,0.020252,-0.035,0.385,0.6475000000000001,-0.21981876644256065,0.1847413037123648,-0.15638702133878982
1742916962.9741077,1.00284,0.0023179999999999997,0.02196,-0.07,0.15750000000000003,0.24500000000000002,-0.21981876644256065,0.1847413037123648,-0.15638702133878982
1742916962.9789562,1.004426,0.00244,0.020252,-0.07,0.35000000000000003,0.7350000000000001,-0.21981876644256065,0.1847413037123648,-0.15638702133878982
1742916962.9838245,1.00467,0.0030499999999999998,0.022326,-0.10500000000000001,0.47250000000000003,0.6125,-0.21981876644256065,0.1847413037123648,-0.15638702133878982
1742916962.9886966,1.003328,0.0023179999999999997,0.021471999999999998,-0.15750000000000003,-0.0175,0.052500000000000005,-0.21981876644256065,0.1847413037123648,-0.15638702133878982
1742916962.99357,1.004914,0.004148,0.021838,-0.24500000000000002,0.08750000000000001,0.29750000000000004,-0.22215726395790705,0.17831043554516224,-0.15287927506577023
1742916962.9984455,1.007232,0.0017079999999999999,0.019886,-0.1925,-0.052500000000000005,0.47250000000000003,-0.22215726395790705,0.17831043554516224,-0.15287927506577023
1742916963.0033088,1.003938,0.0030499999999999998,0.022935999999999998,-0.17500000000000002,0.6825000000000001,0.525,-0.22215726395790705,0.17831043554516224,-0.15287927506577023
1742916963.008178,1.00528,0.002196,0.02196,-0.08750000000000001,0.15750000000000003,0.42000000000000004,-0.22215726395790705,0.17831043554516224,-0.15287927506577023
1742916963.0130486,1.008086,0.00244,0.018543999999999998,-0.0175,0.08750000000000001,0.43750000000000006,-0.22215726395790705,0.17831043554516224,-0.15287927506577023
1742916963.0179183,1.008696,0.003904,0.0183,0.0,0.49000000000000005,0.77,-0.22215726395790705,0.17831043554516224,-0.15287927506577023
1742916963.0227919,1.005158,0.003904,0.024034,-0.0175,0.385,0.56,-0.22215726395790705,0.17831043554516224,-0.15287927506577023
1742916963.0276828,1.00284,0.005612,0.024278,0.035,0.24500000000000002,0.6475000000000001,-0.22215726395790705,0.17831043554516224,-0.15287927506577023
1742916963.032551,1.004426,0.000976,0.02379,-0.07,0.14,0.6300000000000001,-0.22215726395790705,0.17831043554516224,-0.15287927506577023
1742916963.0374146,1.007354,0.000366,0.020984,-0.07,0.052500000000000005,0.15750000000000003,-0.21280327389652148,0.1847413037123648,-0.1598947676118094
1742916963.0422807,1.004914,0.0017079999999999999,0.022448,-0.08750000000000001,-0.5950000000000001,-0.28,-0.21280327389652148,0.1847413037123648,-0.1598947676118094
1742916963.0471463,1.00528,0.005124,0.02318,-0.14,0.385,0.7875000000000001,-0.21280327389652148,0.1847413037123648,-0.1598947676118094
1742916963.0520153,1.009916,0.0053679999999999995,0.022326,-0.12250000000000001,0.17500000000000002,0.45500000000000007,-0.21280327389652148,0.1847413037123648,-0.1598947676118094
1742916963.0568826,1.005036,0.004392,0.020739999999999998,-0.14,0.42000000000000004,0.805,-0.21280327389652148,0.1847413037123648,-0.1598947676118094
1742916963.0617514,1.00711,0.003538,0.019764,-0.12250000000000001,0.36750000000000005,0.665,-0.21280327389652148,0.1847413037123648,-0.1598947676118094
1742916963.0666199,1.006134,0.0034159999999999998,0.021106,-0.14,0.49000000000000005,0.665,-0.21280327389652148,0.1847413037123648,-0.1598947676118094
1742916963.071486,1.002474,0.0034159999999999998,0.022326,-0.17500000000000002,0.525,0.6300000000000001,-0.21280327389652148,0.1847413037123648,-0.1598947676118094
1742916963.0763533,1.001864,0.000976,0.021594,-0.12250000000000001,0.28,0.35000000000000003,-0.21280327389652148,0.1847413037123648,-0.1598947676118094
1742916963.0812204,1.004182,0.002928,0.022326,-0.08750000000000001,0.21000000000000002,0.42000000000000004,-0.21280327389652148,0.1847413037123648,-0.1598947676118094
1742916963.086089,1.007354,0.0060999999999999995,0.021106,-0.12250000000000001,0.12250000000000001,0.42000000000000004,-0.2081262788658287,0.17947968430283542,-0.15667933352820812
1742916963.090956,1.004182,0.00366,0.021471999999999998,-0.14,-0.052500000000000005,-0.14,-0.2081262788658287,0.17947968430283542,-0.15667933352820812
1742916963.0958226,1.00528,0.0034159999999999998,0.024156,0.0,0.24500000000000002,0.7175,-0.2081262788658287,0.17947968430283542,-0.15667933352820812
1742916963.1006935,1.005158,0.005856,0.022935999999999998,-0.10500000000000001,0.14,0.385,-0.2081262788658287,0.17947968430283542,-0.15667933352820812
1742916963.1055636,1.002718,0.002806,0.021594,-0.08750000000000001,0.035,0.4025,-0.2081262788658287,0.17947968430283542,-0.15667933352820812
1742916963.1105042,1.006134,0.002928,0.020374,-0.08750000000000001,0.0175,0.47250000000000003,-0.2081262788658287,0.17947968430283542,-0.15667933352820812
1742916963.1153872,1.008208,0.0042699999999999995,0.020496,-0.08750000000000001,0.10500000000000001,0.42000000000000004,-0.2081262788658287,0.17947968430283542,-0.15667933352820812
1742916963.120226,1.005646,0.00061,0.021228,0.0175,0.29750000000000004,0.35000000000000003,-0.2081262788658287,0.17947968430283542,-0.15667933352820812
1742916963.1251025,1.004792,0.003904,0.021838,-0.12250000000000001,0.29750000000000004,0.385,-0.2081262788658287,0.17947968430283542,-0.15667933352820812
1742916963.1299684,1.006866,0.004514,0.022203999999999998,-0.08750000000000001,0.21000000000000002,0.49000000000000005,-0.2081262788658287,0.17947968430283542,-0.15667933352820812
1742916963.1348517,1.005646,0.003172,0.020618,-0.08750000000000001,0.07,0.10500000000000001,-0.22624963460976322,0.17363344051446947,-0.15463314820228002
1742916963.1465414,1.006256,0.0046359999999999995,0.021594,-0.08750000000000001,0.8400000000000001,0.9800000000000001,-0.22624963460976322,0.17363344051446947,-0.15463314820228002
1742916963.1494696,1.006378,0.003172,0.020984,-0.052500000000000005,0.4025,0.56,-0.22624963460976322,0.17363344051446947,-0.15463314820228002
1742916963.154334,1.00345,0.002562,0.020618,-0.07,0.14,0.28,-0.22624963460976322,0.17363344051446947,-0.15463314820228002
1742916963.1592083,1.003084,0.002074,0.021106,0.0,0.15750000000000003,0.2625,-0.22624963460976322,0.17363344051446947,-0.15463314820228002
1742916963.1640718,1.006134,0.00244,0.01952,-0.035,-0.10500000000000001,0.08750000000000001,-0.22624963460976322,0.17363344051446947,-0.15463314820228002
1742916963.1689417,1.007842,0.00488,0.019886,-0.08750000000000001,0.14,0.42000000000000004,-0.22624963460976322,0.17363344051446947,-0.15463314820228002
1742916963.1738186,1.004426,0.00366,0.020496,-0.08750000000000001,0.385,0.6125,-0.22624963460976322,0.17363344051446947,-0.15463314820228002
1742916963.178679,1.004426,0.004392,0.021471999999999998,-0.12250000000000001,0.14,0.35000000000000003,-0.22624963460976322,0.17363344051446947,-0.15463314820228002
1742916963.1835454,1.005524,0.001464,0.021716,-0.12250000000000001,0.15750000000000003,0.3325,-0.21748026892721425,0.17129494299912307,-0.15200233849751535
1742916963.1884174,1.006378,0.000244,0.020618,-0.15750000000000003,-0.035,0.28,-0.21748026892721425,0.17129494299912307,-0.15200233849751535
1742916963.1932857,1.004548,0.003172,0.019154,-0.0175,0.665,0.7175,-0.21748026892721425,0.17129494299912307,-0.15200233849751535
1742916963.2011049,1.002596,0.004026,0.024644,-0.10500000000000001,0.21000000000000002,0.5075000000000001,-0.21748026892721425,0.17129494299912307,-0.15200233849751535
1742916963.2039702,1.004792,0.003294,0.020007999999999998,-0.10500000000000001,0.21000000000000002,0.5075000000000001,-0.21748026892721425,0.17129494299912307,-0.15200233849751535
1742916963.2088385,1.00589,0.001952,0.021594,-0.12250000000000001,0.21000000000000002,0.385,-0.21748026892721425,0.17129494299912307,-0.15200233849751535
1742916963.2137067,1.00467,0.0026839999999999998,0.02013,-0.0175,0.15750000000000003,0.45500000000000007,-0.21748026892721425,0.17129494299912307,-0.15200233849751535
1742916963.22,1.004914,0.003294,0.024399999999999998,-0.035,0.21000000000000002,0.45500000000000007,-0.21748026892721425,0.17129494299912307,-0.15200233849751535
1742916963.2235298,1.004548,0.002562,0.018178,-0.17500000000000002,0.15750000000000003,0.385,-0.21748026892721425,0.17129494299912307,-0.15200233849751535
1742916963.2283883,1.005036,0.0042699999999999995,0.017934,-0.07,0.17500000000000002,0.43750000000000006,-0.21748026892721425,0.17129494299912307,-0.15200233849751535
1742916963.2332404,1.006622,0.0046359999999999995,0.021228,-0.10500000000000001,-0.035,0.15750000000000003,-0.21514177141186788,0.17538731365097926,-0.15901783104355452
1742916963.2381024,1.0065,0.002928,0.016958,0.0,0.525,0.9975,-0.21514177141186788,0.17538731365097926,-0.15901783104355452
1742916963.2429895,1.004426,0.001952,0.021228,-0.035,0.43750000000000006,0.525,-0.21514177141186788,0.17538731365097926,-0.15901783104355452
1742916963.2478483,1.00284,0.003538,0.024888,-0.07,0.42000000000000004,0.525,-0.21514177141186788,0.17538731365097926,-0.15901783104355452
1742916963.2551222,1.00223,0.0053679999999999995,0.024034,-0.035,0.1925,0.5425000000000001,-0.21514177141186788,0.17538731365097926,-0.15901783104355452
1742916963.258208,1.006012,0.002928,0.02196,-0.07,0.2625,0.8225000000000001,-0.21514177141186788,0.17538731365097926,-0.15901783104355452
1742916963.263075,1.004914,0.002806,0.019154,-0.10500000000000001,-0.17500000000000002,0.17500000000000002,-0.21514177141186788,0.17538731365097926,-0.15901783104355452
1742916963.2679431,1.006744,0.003538,0.019032,-0.052500000000000005,0.12250000000000001,0.56,-0.21514177141186788,0.17538731365097926,-0.15901783104355452
1742916963.2728198,1.005646,0.005856,0.021838,0.0175,0.12250000000000001,0.42000000000000004,-0.21514177141186788,0.17538731365097926,-0.15901783104355452
1742916963.2777286,1.004304,-0.030866,0.027816,0.035,0.21000000000000002,0.7000000000000001,-0.22098801520023384,0.17246419175679625,-0.15551008477053493
1742916963.2825954,0.99735,0.025254,0.01952,0.29750000000000004,-0.12250000000000001,-0.42000000000000004,-0.22098801520023384,0.17246419175679625,-0.15551008477053493
1742916963.2874622,0.977708,0.020496,0.040626,0.052500000000000005,-0.17500000000000002,1.3650000000000002,-0.22098801520023384,0.17246419175679625,-0.15551008477053493
1742916963.292321,1.007964,0.0050019999999999995,0.024034,-0.17500000000000002,-1.8375000000000001,0.7000000000000001,-0.22098801520023384,0.17246419175679625,-0.15551008477053493
1742916963.2971897,1.077016,-0.035502,-0.02989,-0.1925,-1.435,-0.77,-0.22098801520023384,0.17246419175679625,-0.15551008477053493
1742916963.302059,0.988322,0.025742,0.01342,-0.14,2.7125000000000004,-1.1725,-0.22098801520023384,0.17246419175679625,-0.15551008477053493
1742916963.308206,1.045784,-0.022935999999999998,-0.009028,0.052500000000000005,-2.3800000000000003,1.8375000000000001,-0.22098801520023384,0.17246419175679625,-0.15551008477053493
1742916963.3117926,1.045784,-0.022935999999999998,-0.009028,0.052500000000000005,0.5950000000000001,0.7000000000000001,-0.22098801520023384,0.17246419175679625,-0.15551008477053493
1742916963.3166683,1.043954,-0.006222,-0.026108,0.035,3.1500000000000004,0.49000000000000005,-0.22098801520023384,0.17246419175679625,-0.15551008477053493
1742916963.3215346,0.976244,0.028426,0.051606,0.035,0.8225000000000001,1.5050000000000001,-0.22098801520023384,0.17246419175679625,-0.15551008477053493
1742916963.3264048,0.990884,0.003294,0.003904,-0.052500000000000005,-0.17500000000000002,0.7000000000000001,-0.22215726395790705,0.17772581116632563,-0.1616486407483192
1742916963.331273,1.010526,-0.017202,0.047214,-0.035,0.8750000000000001,-0.052500000000000005,-0.22215726395790705,0.17772581116632563,-0.1616486407483192
1742916963.33614,0.978928,0.019032,0.042943999999999996,-0.1925,-0.665,-0.15750000000000003,-0.22215726395790705,0.17772581116632563,-0.1616486407483192
1742916963.3410082,1.03029,0.00549,-0.002074,-0.07,-2.1350000000000002,0.525,-0.22215726395790705,0.17772581116632563,-0.1616486407483192
1742916963.3459013,1.033828,0.0013419999999999999,0.000244,-0.035,-0.43750000000000006,0.8400000000000001,-0.22215726395790705,0.17772581116632563,-0.1616486407483192
1742916963.3507476,1.006866,0.007686,0.015493999999999999,-0.10500000000000001,1.0325000000000002,0.6125,-0.22215726395790705,0.17772581116632563,-0.1616486407483192
1742916963.3556142,0.993324,0.003172,0.028791999999999998,0.0,1.0675000000000001,0.8225000000000001,-0.22215726395790705,0.17772581116632563,-0.1616486407483192
1742916963.361293,1.006256,0.0034159999999999998,0.025742,0.052500000000000005,0.052500000000000005,1.0325000000000002,-0.22215726395790705,0.17772581116632563,-0.1616486407483192
1742916963.365358,1.02419,-0.0017079999999999999,0.002806,-0.0175,0.12250000000000001,0.8225000000000001,-0.22215726395790705,0.17772581116632563,-0.1616486407483192
1742916963.3702261,1.002596,0.003294,0.016347999999999998,0.0,1.3650000000000002,0.3325,-0.22215726395790705,0.17772581116632563,-0.1616486407483192
1742916963.3750978,0.9773419999999999,0.005612,0.046604,0.0175,1.3125000000000002,0.22750000000000004,-0.21689564454837768,0.182987430575855,-0.15755627009646303
1742916963.3799708,0.99674,0.000488,0.025742,-0.15750000000000003,-0.8400000000000001,0.35000000000000003,-0.21689564454837768,0.182987430575855,-0.15755627009646303
1742916963.384854,1.012844,-0.000488,0.016714,-0.07,-0.24500000000000002,0.7875000000000001,-0.21689564454837768,0.182987430575855,-0.15755627009646303
1742916963.3897057,1.001132,0.00732,0.021594,-0.035,-0.0175,0.29750000000000004,-0.21689564454837768,0.182987430575855,-0.15755627009646303
1742916963.39455,1.001376,0.011956,0.024278,-0.0175,-0.1925,0.6475000000000001,-0.21689564454837768,0.182987430575855,-0.15755627009646303
1742916963.3994136,1.009672,-0.0017079999999999999,0.014029999999999999,0.035,-0.2625,0.8925000000000001,-0.21689564454837768,0.182987430575855,-0.15755627009646303
1742916963.4042876,1.011136,-0.000976,0.018178,-0.07,0.0175,0.49000000000000005,-0.21689564454837768,0.182987430575855,-0.15755627009646303
1742916963.4092045,1.010404,0.007808,0.017446,-0.12250000000000001,0.2625,0.1925,-0.21689564454837768,0.182987430575855,-0.15755627009646303
1742916963.4147923,1.012722,0.0075639999999999995,0.012199999999999999,-0.08750000000000001,1.1375000000000002,0.8925000000000001,-0.21689564454837768,0.182987430575855,-0.15755627009646303
1742916963.4188964,1.010282,0.001586,0.013542,-0.08750000000000001,1.1375000000000002,0.8925000000000001,-0.21689564454837768,0.182987430575855,-0.15755627009646303
1742916963.4237933,0.99552,0.00366,0.025376,-0.17500000000000002,1.3650000000000002,0.665,-0.22391113709441685,0.17655656240865245,-0.16720257234726688
1742916963.428633,0.986004,0.00183,0.034648,0.052500000000000005,0.0,0.7875000000000001,-0.22391113709441685,0.17655656240865245,-0.16720257234726688
1742916963.4335015,0.9958859999999999,0.000732,0.030012,0.0175,-0.805,0.10500000000000001,-0.22391113709441685,0.17655656240865245,-0.16720257234726688
1742916963.438372,1.013454,0.001586,0.014518,-0.0175,-0.45500000000000007,0.10500000000000001,-0.22391113709441685,0.17655656240865245,-0.16720257234726688
1742916963.4432397,1.0126,0.00366,0.017079999999999998,-0.035,0.14,0.42000000000000004,-0.22391113709441685,0.17655656240865245,-0.16720257234726688
1742916963.448107,1.005646,0.006222,0.021228,0.08750000000000001,-0.08750000000000001,0.22750000000000004,-0.22391113709441685,0.17655656240865245,-0.16720257234726688
1742916963.452979,1.006866,0.002562,0.016592,0.0,-0.052500000000000005,0.29750000000000004,-0.22391113709441685,0.17655656240865245,-0.16720257234726688
1742916963.457844,1.012478,0.0060999999999999995,0.018666,0.0,0.21000000000000002,0.35000000000000003,-0.22391113709441685,0.17655656240865245,-0.16720257234726688
1742916963.4627159,1.008696,0.00549,0.014884,0.052500000000000005,0.525,0.6475000000000001,-0.22391113709441685,0.17655656240865245,-0.16720257234726688
1742916963.468299,1.004182,0.00122,0.021838,0.052500000000000005,0.6825000000000001,0.7350000000000001,-0.22391113709441685,0.17655656240865245,-0.16720257234726688
1742916963.472494,1.00345,0.000976,0.021838,-0.10500000000000001,0.3325,0.385,-0.21923414206372405,0.17889505992399882,-0.1598947676118094
1742916963.477321,0.999302,-0.000244,0.023058,0.10500000000000001,0.6475000000000001,1.05,-0.21923414206372405,0.17889505992399882,-0.1598947676118094
1742916963.482188,0.999424,0.003294,0.024522,-0.052500000000000005,0.47250000000000003,0.6125,-0.21923414206372405,0.17889505992399882,-0.1598947676118094
1742916963.4870565,1.00284,0.002562,0.020739999999999998,0.052500000000000005,-0.08750000000000001,0.29750000000000004,-0.21923414206372405,0.17889505992399882,-0.1598947676118094
1742916963.4919255,1.00406,0.002074,0.019275999999999998,0.08750000000000001,-0.31500000000000006,0.15750000000000003,-0.21923414206372405,0.17889505992399882,-0.1598947676118094
1742916963.4967945,1.005402,0.00671,0.02013,0.035,-0.14,0.35000000000000003,-0.21923414206372405,0.17889505992399882,-0.1598947676118094
1742916963.501675,1.01077,0.005856,0.015982,0.0175,-0.10500000000000001,0.42000000000000004,-0.21923414206372405,0.17889505992399882,-0.1598947676118094
1742916963.5065413,1.014796,0.014395999999999999,0.013663999999999999,-0.0175,0.07,0.5075000000000001,-0.21923414206372405,0.17889505992399882,-0.1598947676118094
1742916963.511399,1.01321,-0.00183,0.02013,-0.08750000000000001,0.49000000000000005,0.7875000000000001,-0.21923414206372405,0.17889505992399882,-0.1598947676118094
1742916963.5163136,1.017236,-0.0075639999999999995,0.009516,-0.07,0.8225000000000001,0.7525000000000001,-0.21923414206372405,0.17889505992399882,-0.1598947676118094
1742916963.5218902,0.991494,0.015006,0.02867,0.0,1.155,0.28,-0.22040339082139726,0.1824028061970184,-0.163402513884829
1742916963.5260057,0.9871019999999999,0.007808,0.037942,-0.0175,0.5075000000000001,1.0325000000000002,-0.22040339082139726,0.1824028061970184,-0.163402513884829
1742916963.5308766,1.013454,-0.008662,0.01098,-0.1925,-0.49000000000000005,0.6300000000000001,-0.22040339082139726,0.1824028061970184,-0.163402513884829
1742916963.535741,1.006134,0.0057339999999999995,0.01586,0.0175,0.17500000000000002,0.15750000000000003,-0.22040339082139726,0.1824028061970184,-0.163402513884829
1742916963.5406108,0.987712,0.011467999999999999,0.034038,-0.07,0.4025,0.56,-0.22040339082139726,0.1824028061970184,-0.163402513884829
1742916963.5454817,1.009184,-0.004026,0.016836,-0.052500000000000005,-0.36750000000000005,0.12250000000000001,-0.22040339082139726,0.1824028061970184,-0.163402513884829
1742916963.550349,1.013332,0.0023179999999999997,0.01586,-0.07,0.15750000000000003,0.15750000000000003,-0.22040339082139726,0.1824028061970184,-0.163402513884829
1742916963.55522,1.004182,0.00915,0.022814,-0.07,-0.10500000000000001,0.42000000000000004,-0.22040339082139726,0.1824028061970184,-0.163402513884829
1742916963.560086,1.014186,0.0046359999999999995,0.019154,-0.0175,0.5425000000000001,0.9450000000000001,-0.22040339082139726,0.1824028061970184,-0.163402513884829
1742916963.5649567,1.015528,0.001098,0.023424,-0.10500000000000001,0.8750000000000001,0.35000000000000003,-0.22040339082139726,0.17714118678748902,-0.15960245542239113
1742916963.569824,0.998448,0.0030499999999999998,0.023667999999999998,-0.15750000000000003,0.49000000000000005,0.4025,-0.21572639579070446,0.17714118678748902,-0.15960245542239113
1742916963.5753913,0.999424,0.004148,0.027938,-0.10500000000000001,0.805,1.0325000000000002,-0.21572639579070446,0.17714118678748902,-0.15960245542239113
1742916963.579561,1.00101,0.002562,0.02196,-0.052500000000000005,0.21000000000000002,0.5425000000000001,-0.21572639579070446,0.17714118678748902,-0.15960245542239113
1742916963.5844283,1.001742,0.0042699999999999995,0.017934,-0.10500000000000001,-0.0175,0.24500000000000002,-0.21572639579070446,0.17714118678748902,-0.15960245542239113
1742916963.5893023,0.998448,0.002074,0.02196,-0.12250000000000001,0.0,0.29750000000000004,-0.21572639579070446,0.17714118678748902,-0.15960245542239113
1742916963.5941658,1.00528,0.00549,0.022326,-0.035,-0.385,0.3325,-0.21572639579070446,0.17714118678748902,-0.15960245542239113
1742916963.599039,1.0187,0.003538,0.0075639999999999995,-0.07,-0.385,0.42000000000000004,-0.21572639579070446,0.17714118678748902,-0.15960245542239113
1742916963.603914,1.010526,0.0060999999999999995,0.013908,-0.10500000000000001,0.43750000000000006,0.385,-0.21572639579070446,0.17714118678748902,-0.15960245542239113
1742916963.60879,1.002474,0.011101999999999999,0.022935999999999998,-0.14,0.8750000000000001,0.5425000000000001,-0.21572639579070446,0.17714118678748902,-0.15960245542239113
1742916963.613656,1.004792,0.00244,0.019154,-0.08750000000000001,0.49000000000000005,0.5425000000000001,-0.22098801520023384,0.17597193802981584,-0.15638702133878982
1742916963.6185136,1.003816,-0.001464,0.017446,-0.07,-0.08750000000000001,0.0175,-0.22098801520023384,0.17597193802981584,-0.15638702133878982
1742916963.6233797,1.002962,0.0034159999999999998,0.021838,-0.10500000000000001,0.77,0.9800000000000001,-0.22098801520023384,0.17597193802981584,-0.15638702133878982
1742916963.628968,1.000034,0.0026839999999999998,0.021106,-0.12250000000000001,0.43750000000000006,0.385,-0.22098801520023384,0.17597193802981584,-0.15638702133878982
1742916963.6331213,1.000766,0.000732,0.019886,-0.10500000000000001,0.10500000000000001,0.22750000000000004,-0.22098801520023384,0.17597193802981584,-0.15638702133878982
1742916963.6379852,1.001498,0.002562,0.024034,-0.07,-0.07,0.14,-0.22098801520023384,0.17597193802981584,-0.15638702133878982
1742916963.6428587,1.004792,0.003172,0.021471999999999998,-0.12250000000000001,-0.14,0.14,-0.22098801520023384,0.17597193802981584,-0.15638702133878982
1742916963.6477277,1.00955,0.006344,0.02135,-0.14,-0.2625,0.17500000000000002,-0.22098801520023384,0.17597193802981584,-0.15638702133878982
1742916963.6525936,1.011258,0.00671,0.017811999999999998,-0.15750000000000003,-0.10500000000000001,0.29750000000000004,-0.22098801520023384,0.17597193802981584,-0.15638702133878982
1742916963.6574655,1.010648,0.003172,0.013908,-0.15750000000000003,0.36750000000000005,0.43750000000000006,-0.22098801520023384,0.17597193802981584,-0.15638702133878982
1742916963.662331,1.0065,0.00366,0.018788,-0.14,0.42000000000000004,0.2625,-0.22274188833674363,0.17889505992399882,-0.15229465068693365
1742916963.6671984,1.00223,0.0037819999999999998,0.023424,-0.10500000000000001,0.5425000000000001,0.9275000000000001,-0.22274188833674363,0.17889505992399882,-0.15229465068693365
1742916963.6720693,1.003328,0.002196,0.02135,-0.1925,0.5775,0.7175,-0.22274188833674363,0.17889505992399882,-0.15229465068693365
1742916963.6769414,1.003206,0.000976,0.02135,-0.14,0.29750000000000004,0.42000000000000004,-0.22274188833674363,0.17889505992399882,-0.15229465068693365
1742916963.6825206,1.003694,0.001586,0.022082,-0.15750000000000003,0.07,0.31500000000000006,-0.22274188833674363,0.17889505992399882,-0.15229465068693365
1742916963.6866748,1.00772,0.0008539999999999999,0.021716,-0.17500000000000002,0.0175,0.17500000000000002,-0.22274188833674363,0.17889505992399882,-0.15229465068693365
1742916963.6915407,1.004548,0.005124,0.019398,-0.08750000000000001,-0.21000000000000002,0.14,-0.22274188833674363,0.17889505992399882,-0.15229465068693365
1742916963.6964107,1.007598,0.004758,0.016592,-0.10500000000000001,0.052500000000000005,0.47250000000000003,-0.22274188833674363,0.17889505992399882,-0.15229465068693365
1742916963.7012787,1.010648,0.004514,0.020739999999999998,-0.07,0.15750000000000003,0.56,-0.22274188833674363,0.17889505992399882,-0.15229465068693365
1742916963.7061465,1.007354,0.0026839999999999998,0.01891,-0.10500000000000001,0.3325,0.6825000000000001,-0.22274188833674363,0.17889505992399882,-0.15229465068693365
1742916963.7110138,1.007598,0.00244,0.019642,-0.12250000000000001,0.36750000000000005,0.47250000000000003,-0.21864951768488747,0.1824028061970184,-0.15287927506577023
1742916963.7158818,1.003816,0.003172,0.024644,-0.07,0.10500000000000001,0.385,-0.21864951768488747,0.1824028061970184,-0.15287927506577023
1742916963.720749,0.9989359999999999,0.00122,0.02135,-0.052500000000000005,0.5775,0.7175,-0.21864951768488747,0.1824028061970184,-0.15287927506577023
1742916963.725617,0.999302,0.00244,0.019032,-0.08750000000000001,0.14,0.4025,-0.21864951768488747,0.1824028061970184,-0.15287927506577023
1742916963.730488,1.004182,0.0026839999999999998,0.022448,-0.12250000000000001,-0.035,0.29750000000000004,-0.21864951768488747,0.1824028061970184,-0.15287927506577023
1742916963.7360537,1.005158,0.002074,0.019032,-0.15750000000000003,-0.15750000000000003,0.35000000000000003,-0.21864951768488747,0.1824028061970184,-0.15287927506577023
1742916963.7402217,1.007842,0.005612,0.018422,-0.052500000000000005,0.08750000000000001,0.6125,-0.21864951768488747,0.1824028061970184,-0.15287927506577023
1742916963.745094,1.009306,0.00488,0.019032,0.0,0.035,0.29750000000000004,-0.21864951768488747,0.1824028061970184,-0.15287927506577023
1742916963.74996,1.005768,0.002806,0.018666,-0.10500000000000001,0.2625,0.5075000000000001,-0.21864951768488747,0.1824028061970184,-0.15287927506577023
1742916963.754835,1.006866,0.002196,0.018666,-0.07,0.28,0.6475000000000001,-0.21864951768488747,0.1824028061970184,-0.15287927506577023
1742916963.7597022,1.00528,0.003294,0.020496,-0.052500000000000005,0.36750000000000005,0.6825000000000001,-0.21280327389652148,0.18357205495469162,-0.15375621163402514
1742916963.7645664,1.005524,0.001952,0.020374,0.0175,0.035,0.35000000000000003,-0.21280327389652148,0.18357205495469162,-0.15375621163402514
1742916963.7694342,1.003816,0.002928,0.023912,0.0,0.665,1.05,-0.21280327389652148,0.18357205495469162,-0.15375621163402514
1742916963.7743056,1.002352,0.00244,0.02257,0.0175,0.385,0.42000000000000004,-0.21280327389652148,0.18357205495469162,-0.15375621163402514
1742916963.7791736,1.001742,0.0026839999999999998,0.022082,-0.035,-0.17500000000000002,0.28,-0.21280327389652148,0.18357205495469162,-0.15375621163402514
1742916963.7840445,1.004304,0.00549,0.021838,-0.15750000000000003,-0.29750000000000004,0.14,-0.21280327389652148,0.18357205495469162,-0.15375621163402514
1742916963.7896466,1.007964,0.00549,0.016714,-0.052500000000000005,-0.17500000000000002,0.29750000000000004,-0.21280327389652148,0.18357205495469162,-0.15375621163402514
1742916963.7937963,1.007964,0.00549,0.016714,-0.052500000000000005,0.07,0.35000000000000003,-0.21280327389652148,0.18357205495469162,-0.15375621163402514
1742916963.798664,1.006988,0.0034159999999999998,0.02013,0.0175,0.052500000000000005,0.47250000000000003,-0.21280327389652148,0.18357205495469162,-0.15375621163402514
1742916963.803531,1.005646,0.00061,0.019154,-0.052500000000000005,0.22750000000000004,0.5775,-0.21280327389652148,0.18357205495469162,-0.15375621163402514
1742916963.8084028,1.009794,-0.037942,0.028182,-0.0175,0.28,0.31500000000000006,-0.22332651271558024,0.18357205495469162,-0.15726395790704473
1742916963.8132756,0.98393,0.08881599999999999,0.013663999999999999,0.0175,0.385,0.2625,-0.22332651271558024,0.18357205495469162,-0.15726395790704473
1742916963.8181515,1.003084,-0.055388,0.04209,-0.15750000000000003,-0.29750000000000004,1.715,-0.22332651271558024,0.18357205495469162,-0.15726395790704473
1742916963.8230274,1.0462719999999999,0.0068319999999999995,-0.020252,-0.22750000000000004,-1.435,-0.24500000000000002,-0.22332651271558024,0.18357205495469162,-0.15726395790704473
1742916963.827911,1.004548,0.00976,0.013542,0.0175,2.1700000000000004,-0.21000000000000002,-0.22332651271558024,0.18357205495469162,-0.15726395790704473
1742916963.8327813,0.9441579999999999,0.01769,0.070882,-0.10500000000000001,1.5575,0.9975,-0.22332651271558024,0.18357205495469162,-0.15726395790704473
1742916963.8376431,1.033828,-0.0064659999999999995,0.00366,-0.0175,-2.5375,1.0150000000000001,-0.22332651271558024,0.18357205495469162,-0.15726395790704473
1742916963.8432355,1.046028,-0.026718,-0.02013,-0.07,-0.21000000000000002,0.29750000000000004,-0.22332651271558024,0.18357205495469162,-0.15726395790704473
1742916963.8473818,0.967826,0.039894,0.045262,-0.15750000000000003,2.5200000000000005,-0.12250000000000001,-0.22332651271558024,0.18357205495469162,-0.15726395790704473
1742916963.8522575,1.00284,-0.003172,0.036478,-0.0175,-0.35000000000000003,0.7525000000000001,-0.22332651271558024,0.18357205495469162,-0.15726395790704473
1742916963.857128,1.031266,-0.016347999999999998,-0.010492,-0.052500000000000005,-0.6125,0.6475000000000001,-0.21280327389652148,0.18181818181818182,-0.15726395790704473
1742916963.8619993,0.996618,0.007686,0.02623,-0.14,1.3125000000000002,0.052500000000000005,-0.21280327389652148,0.18181818181818182,-0.15726395790704473
1742916963.8668687,0.983808,0.008539999999999999,0.044896,-0.08750000000000001,0.9275000000000001,0.4025,-0.21280327389652148,0.18181818181818182,-0.15726395790704473
1742916963.8717387,1.01382,0.01159,0.008418,-0.07,-1.0150000000000001,0.6825000000000001,-0.21280327389652148,0.18181818181818182,-0.15726395790704473
1742916963.8766148,1.026508,-0.008418,0.0064659999999999995,-0.07,0.07,1.0675000000000001,-0.21280327389652148,0.18181818181818182,-0.15726395790704473
1742916963.881484,0.993202,-0.003294,0.025863999999999998,-0.08750000000000001,1.0850000000000002,0.36750000000000005,-0.21280327389652148,0.18181818181818182,-0.15726395790704473
1742916963.8863535,0.989298,0.015493999999999999,0.037576,-0.052500000000000005,0.29750000000000004,0.1925,-0.21280327389652148,0.18181818181818182,-0.15726395790704473
1742916963.8912296,1.010282,-0.007686,0.01586,-0.15750000000000003,-0.7525000000000001,0.08750000000000001,-0.21280327389652148,0.18181818181818182,-0.15726395790704473
1742916963.8968034,1.02053,0.000976,0.016347999999999998,-0.12250000000000001,0.7875000000000001,0.10500000000000001,-0.21280327389652148,0.18181818181818182,-0.15726395790704473
1742916963.900969,1.006622,0.010492,0.016347999999999998,-0.07,0.7000000000000001,0.22750000000000004,-0.21280327389652148,0.18181818181818182,-0.15726395790704473
1742916963.9058437,0.993812,0.0023179999999999997,0.028548,0.035,-0.42000000000000004,0.14,-0.21689564454837768,0.1806489330605086,-0.15697164571762642
1742916963.9107172,1.010038,0.004392,0.014152,-0.052500000000000005,0.36750000000000005,0.9450000000000001,-0.21689564454837768,0.1806489330605086,-0.15697164571762642
1742916963.9155858,0.97905,0.0060999999999999995,0.025742,-0.0175,0.6825000000000001,0.6125,-0.21689564454837768,0.1806489330605086,-0.15697164571762642
1742916963.920457,1.005158,0.0071979999999999995,0.022448,0.0175,0.21000000000000002,0.7000000000000001,-0.21689564454837768,0.1806489330605086,-0.15697164571762642
1742916963.9253328,1.005768,-0.0046359999999999995,0.018666,-0.035,0.14,0.6300000000000001,-0.21689564454837768,0.1806489330605086,-0.15697164571762642
1742916963.930201,1.00467,-0.0008539999999999999,0.022326,-0.052500000000000005,0.2625,0.22750000000000004,-0.21689564454837768,0.1806489330605086,-0.15697164571762642
1742916963.9350715,1.005036,0.006588,0.021838,-0.07,0.10500000000000001,0.035,-0.21689564454837768,0.1806489330605086,-0.15697164571762642
1742916963.9399405,1.007232,0.005124,0.019642,-0.052500000000000005,-0.08750000000000001,0.24500000000000002,-0.21689564454837768,0.1806489330605086,-0.15697164571762642
1742916963.9448187,1.011624,0.005246,0.017568,-0.07,0.052500000000000005,0.43750000000000006,-0.21689564454837768,0.1806489330605086,-0.15697164571762642
1742916963.9503958,1.003572,0.001098,0.019398,-0.052500000000000005,0.35000000000000003,0.5775,-0.21689564454837768,0.1806489330605086,-0.15697164571762642
1742916963.9545631,1.002596,0.0017079999999999999,0.025254,-0.052500000000000005,0.22750000000000004,0.2625,-0.22449576147325342,0.1882490499853844,-0.1607717041800643
1742916963.9594345,1.006378,0.0026839999999999998,0.01769,-0.0175,-0.052500000000000005,0.6475000000000001,-0.22449576147325342,0.1882490499853844,-0.1607717041800643
1742916963.9643073,1.005646,0.0030499999999999998,0.019032,-0.10500000000000001,0.45500000000000007,0.5950000000000001,-0.22449576147325342,0.1882490499853844,-0.1607717041800643
1742916963.9691806,1.002718,0.003538,0.02257,-0.0175,0.36750000000000005,0.36750000000000005,-0.22449576147325342,0.1882490499853844,-0.1607717041800643
1742916963.9740486,1.00284,0.0017079999999999999,0.02196,-0.035,0.12250000000000001,0.29750000000000004,-0.22449576147325342,0.1882490499853844,-0.1607717041800643
1742916963.978919,1.005158,0.001464,0.019642,0.035,0.052500000000000005,0.28,-0.22449576147325342,0.1882490499853844,-0.1607717041800643
1742916963.9837904,1.006378,0.004514,0.02135,-0.0175,0.0,0.31500000000000006,-0.22449576147325342,0.1882490499853844,-0.1607717041800643
1742916963.9886627,1.005768,0.004148,0.020007999999999998,0.0175,0.052500000000000005,0.4025,-0.22449576147325342,0.1882490499853844,-0.1607717041800643
1742916963.9935355,1.005646,0.002806,0.021594,0.0,0.08750000000000001,0.5075000000000001,-0.22449576147325342,0.1882490499853844,-0.1607717041800643
1742916963.9984076,1.006256,0.0017079999999999999,0.02257,-0.07,0.15750000000000003,0.525,-0.22449576147325342,0.1882490499853844,-0.1607717041800643
1742916964.0039809,1.004914,0.003538,0.020862,-0.052500000000000005,0.035,0.42000000000000004,-0.22157263957907045,0.182987430575855,-0.15609470914937154
1742916964.0081606,1.004426,0.0046359999999999995,0.01952,-0.052500000000000005,0.3325,0.6475000000000001,-0.22157263957907045,0.182987430575855,-0.15609470914937154
1742916964.0130267,1.006622,0.00366,0.018543999999999998,-0.14,0.28,0.49000000000000005,-0.22157263957907045,0.182987430575855,-0.15609470914937154
1742916964.0178974,1.005158,0.002562,0.01952,-0.15750000000000003,0.29750000000000004,0.36750000000000005,-0.22157263957907045,0.182987430575855,-0.15609470914937154
1742916964.0227692,1.00406,0.003294,0.024278,-0.10500000000000001,0.10500000000000001,0.3325,-0.22157263957907045,0.182987430575855,-0.15609470914937154
1742916964.027671,1.00284,0.00366,0.019032,-0.10500000000000001,-0.035,0.35000000000000003,-0.22157263957907045,0.182987430575855,-0.15609470914937154
1742916964.0325305,1.006866,0.002562,0.019886,-0.08750000000000001,0.07,0.3325,-0.22157263957907045,0.182987430575855,-0.15609470914937154
1742916964.0373962,1.006012,0.002928,0.020252,-0.07,0.052500000000000005,0.35000000000000003,-0.22157263957907045,0.182987430575855,-0.15609470914937154
1742916964.0422666,1.006134,0.003294,0.020374,-0.10500000000000001,0.14,0.42000000000000004,-0.22157263957907045,0.182987430575855,-0.15609470914937154
1742916964.0471368,1.006012,0.001952,0.020007999999999998,-0.14,0.1925,0.47250000000000003,-0.22157263957907045,0.182987430575855,-0.15609470914937154
1742916964.0520194,1.006378,0.00183,0.022935999999999998,-0.17500000000000002,-0.08750000000000001,0.15750000000000003,-0.22215726395790705,0.18006430868167203,-0.1584332066647179
1742916964.0576458,1.00589,0.002806,0.020984,-0.15750000000000003,0.42000000000000004,0.9625000000000001,-0.22215726395790705,0.18006430868167203,-0.1584332066647179
1742916964.061759,1.006622,0.005246,0.021228,-0.12250000000000001,0.45500000000000007,0.5775,-0.22215726395790705,0.18006430868167203,-0.1584332066647179
1742916964.0666318,1.005158,0.0034159999999999998,0.020252,0.0,0.035,0.29750000000000004,-0.22215726395790705,0.18006430868167203,-0.1584332066647179
1742916964.071502,1.006622,0.00244,0.02013,-0.052500000000000005,0.17500000000000002,0.36750000000000005,-0.22215726395790705,0.18006430868167203,-0.1584332066647179
1742916964.0763743,1.006622,0.004514,0.019398,0.0175,0.14,0.42000000000000004,-0.22215726395790705,0.18006430868167203,-0.1584332066647179
1742916964.0812485,1.006012,0.003904,0.020862,0.0175,0.17500000000000002,0.4025,-0.22215726395790705,0.18006430868167203,-0.1584332066647179
1742916964.0861201,1.004914,0.003172,0.020496,0.0,0.12250000000000001,0.4025,-0.22215726395790705,0.18006430868167203,-0.1584332066647179
1742916964.0909908,1.003694,0.002196,0.022692,-0.035,0.08750000000000001,0.4025,-0.22215726395790705,0.18006430868167203,-0.1584332066647179
1742916964.0958624,1.006012,0.0034159999999999998,0.021228,-0.07,0.15750000000000003,0.5950000000000001,-0.22215726395790705,0.17772581116632563,-0.15901783104355452
1742916964.1007402,1.007598,0.002074,0.018788,-0.17500000000000002,-0.10500000000000001,0.052500000000000005,-0.21455714703303128,0.17772581116632563,-0.15901783104355452
1742916964.1056118,1.008452,0.002562,0.019032,-0.17500000000000002,0.12250000000000001,0.5775,-0.21455714703303128,0.17772581116632563,-0.15901783104355452
1742916964.1112156,1.006134,0.0030499999999999998,0.02013,-0.21000000000000002,0.22750000000000004,0.43750000000000006,-0.21455714703303128,0.17772581116632563,-0.15901783104355452
1742916964.1153557,1.00406,0.002928,0.020618,-0.21000000000000002,0.22750000000000004,0.43750000000000006,-0.21455714703303128,0.17772581116632563,-0.15901783104355452
1742916964.120232,1.005158,0.0057339999999999995,0.024522,-0.052500000000000005,0.10500000000000001,0.5075000000000001,-0.21455714703303128,0.17772581116632563,-0.15901783104355452
1742916964.125104,1.00528,0.00488,0.01952,-0.07,0.14,0.43750000000000006,-0.21455714703303128,0.17772581116632563,-0.15901783104355452
1742916964.1299736,1.00711,0.0057339999999999995,0.02257,0.052500000000000005,0.12250000000000001,0.42000000000000004,-0.21455714703303128,0.17772581116632563,-0.15901783104355452
1742916964.1348433,1.004914,0.004392,0.022692,0.035,0.15750000000000003,0.385,-0.21455714703303128,0.17772581116632563,-0.15901783104355452
1742916964.139715,1.00528,0.0023179999999999997,0.019886,-0.035,0.10500000000000001,0.4025,-0.21455714703303128,0.17772581116632563,-0.15901783104355452
1742916964.144592,1.005646,0.0030499999999999998,0.019886,-0.08750000000000001,0.15750000000000003,0.28,-0.21631102016954107,0.18181818181818182,-0.15726395790704473
1742916964.1494606,1.00528,0.002928,0.020496,-0.15750000000000003,-0.035,0.24500000000000002,-0.21631102016954107,0.18181818181818182,-0.15726395790704473
1742916964.1543336,1.00589,0.00183,0.021228,-0.12250000000000001,0.43750000000000006,0.7175,-0.21631102016954107,0.18181818181818182,-0.15726395790704473
1742916964.1592085,1.005524,0.0037819999999999998,0.021228,-0.12250000000000001,0.24500000000000002,0.42000000000000004,-0.21631102016954107,0.18181818181818182,-0.15726395790704473
1742916964.170682,1.005402,0.003172,0.022814,-0.10500000000000001,0.385,0.6825000000000001,-0.21631102016954107,0.18181818181818182,-0.15726395790704473
1742916964.1737146,1.006622,0.00366,0.022326,-0.10500000000000001,0.3325,0.5425000000000001,-0.21631102016954107,0.18181818181818182,-0.15726395790704473
1742916964.1785567,1.00345,0.0034159999999999998,0.021838,-0.10500000000000001,0.052500000000000005,0.22750000000000004,-0.21631102016954107,0.18181818181818182,-0.15726395790704473
1742916964.1834297,1.00589,0.002196,0.022326,-0.07,-0.0175,0.35000000000000003,-0.21631102016954107,0.18181818181818182,-0.15726395790704473
1742916964.1883044,1.00528,0.003294,0.022082,0.0175,0.052500000000000005,0.36750000000000005,-0.21631102016954107,0.18181818181818182,-0.15726395790704473
1742916964.1931803,1.006012,0.002928,0.020496,-0.07,0.12250000000000001,0.35000000000000003,-0.22449576147325342,0.18123355743934522,-0.160479391990646
1742916964.1980538,1.006866,0.001952,0.022082,-0.24500000000000002,-0.052500000000000005,0.0175,-0.22449576147325342,0.18123355743934522,-0.160479391990646
1742916964.202931,1.004182,0.0034159999999999998,0.022082,-0.17500000000000002,0.43750000000000006,0.9450000000000001,-0.22449576147325342,0.18123355743934522,-0.160479391990646
1742916964.2077985,1.00528,0.002562,0.02257,-0.07,0.36750000000000005,0.56,-0.22449576147325342,0.18123355743934522,-0.160479391990646
1742916964.2126722,1.003816,0.002196,0.02196,-0.035,0.22750000000000004,0.45500000000000007,-0.22449576147325342,0.18123355743934522,-0.160479391990646
1742916964.2175508,1.006866,0.00366,0.021106,-0.07,0.14,0.47250000000000003,-0.22449576147325342,0.18123355743934522,-0.160479391990646
1742916964.22546,1.00345,0.0030499999999999998,0.019886,-0.0175,0.12250000000000001,0.4025,-0.22449576147325342,0.18123355743934522,-0.160479391990646
1742916964.2290773,1.006622,0.0026839999999999998,0.021106,-0.07,0.24500000000000002,0.5425000000000001,-0.22449576147325342,0.18123355743934522,-0.160479391990646
1742916964.233929,1.003694,0.015982,0.020007999999999998,-0.15750000000000003,-0.035,0.1925,-0.22449576147325342,0.18123355743934522,-0.160479391990646
1742916964.238798,1.002474,0.001952,0.029402,-0.1925,0.12250000000000001,0.7350000000000001,-0.22449576147325342,0.18123355743934522,-0.160479391990646
1742916964.2436733,1.0310219999999999,-0.020252,0.005246,-0.15750000000000003,-0.36750000000000005,0.15750000000000003,-0.21689564454837768,0.17831043554516224,-0.15551008477053493
1742916964.24854,1.011868,0.010858,0.003538,-0.08750000000000001,0.9100000000000001,0.08750000000000001,-0.21689564454837768,0.17831043554516224,-0.15551008477053493
1742916964.2534106,0.9803919999999999,0.016592,0.051362,-0.08750000000000001,2.0125,0.6475000000000001,-0.21689564454837768,0.17831043554516224,-0.15551008477053493
1742916964.2582817,1.003816,-0.004148,0.02318,-0.12250000000000001,-0.07,1.155,-0.21689564454837768,0.17831043554516224,-0.15551008477053493
1742916964.2631493,1.021262,-0.00732,0.005124,-0.052500000000000005,-0.035,0.9100000000000001,-0.21689564454837768,0.17831043554516224,-0.15551008477053493
1742916964.2680206,1.003328,0.002806,0.029158,-0.10500000000000001,1.0325000000000002,0.24500000000000002,-0.21689564454837768,0.17831043554516224,-0.15551008477053493
1742916964.2728906,0.9964959999999999,0.005856,0.027816,-0.12250000000000001,0.6125,0.17500000000000002,-0.21689564454837768,0.17831043554516224,-0.15551008477053493
1742916964.2794547,0.999058,0.0037819999999999998,0.024888,-0.035,0.07,0.49000000000000005,-0.21689564454837768,0.17831043554516224,-0.15551008477053493
1742916964.282646,1.000644,-0.000976,0.02745,-0.035,0.07,0.49000000000000005,-0.21689564454837768,0.17831043554516224,-0.15551008477053493
1742916964.28751,1.012356,0.0026839999999999998,0.016104,-0.12250000000000001,-0.385,-0.2625,-0.21689564454837768,0.17831043554516224,-0.15551008477053493
1742916964.2923832,1.007964,0.007442,0.017446,-0.052500000000000005,0.07,0.0,-0.21455714703303128,0.185910552470038,-0.15551008477053493
1742916964.2972507,1.007354,0.006588,0.026718,-0.052500000000000005,0.07,0.2625,-0.21455714703303128,0.185910552470038,-0.15551008477053493
1742916964.3021226,1.00589,0.0013419999999999999,0.018056,-0.14,0.5425000000000001,1.155,-0.21455714703303128,0.185910552470038,-0.15551008477053493
1742916964.306998,0.999424,-0.0008539999999999999,0.025498,-0.07,0.56,0.7350000000000001,-0.21455714703303128,0.185910552470038,-0.15551008477053493
1742916964.3118775,0.99918,0.0030499999999999998,0.030744,-0.1925,-0.22750000000000004,0.385,-0.21455714703303128,0.185910552470038,-0.15551008477053493
1742916964.3167486,1.010282,0.003904,0.017934,-0.07,0.24500000000000002,0.35000000000000003,-0.21455714703303128,0.185910552470038,-0.15551008477053493
1742916964.3216183,1.009062,0.000366,0.018543999999999998,-0.0175,0.31500000000000006,0.14,-0.21455714703303128,0.185910552470038,-0.15551008477053493
1742916964.3264885,1.002474,0.0057339999999999995,0.026718,-0.035,0.14,0.21000000000000002,-0.21455714703303128,0.185910552470038,-0.15551008477053493
1742916964.3325305,1.005768,0.00488,0.020739999999999998,0.035,0.052500000000000005,0.45500000000000007,-0.21455714703303128,0.185910552470038,-0.15551008477053493
1742916964.3362348,1.005768,0.003904,0.020496,0.052500000000000005,0.08750000000000001,0.56,-0.21455714703303128,0.185910552470038,-0.15551008477053493
1742916964.3411052,1.010648,0.0030499999999999998,0.0183,-0.0175,-0.17500000000000002,0.052500000000000005,-0.21689564454837768,0.1905875475007308,-0.15229465068693365
1742916964.3459773,1.002962,0.000488,0.026595999999999998,0.0175,0.7000000000000001,1.0850000000000002,-0.21689564454837768,0.1905875475007308,-0.15229465068693365
1742916964.3508465,1.004426,0.00488,0.024034,-0.12250000000000001,0.385,0.47250000000000003,-0.21689564454837768,0.1905875475007308,-0.15229465068693365
1742916964.3557243,1.005646,0.0030499999999999998,0.02196,-0.12250000000000001,0.22750000000000004,0.385,-0.21689564454837768,0.1905875475007308,-0.15229465068693365
1742916964.360601,1.004548,0.0026839999999999998,0.021594,-0.12250000000000001,0.29750000000000004,0.43750000000000006,-0.21689564454837768,0.1905875475007308,-0.15229465068693365
1742916964.3654594,1.0065,0.004758,0.023302,-0.052500000000000005,0.1925,0.49000000000000005,-0.21689564454837768,0.1905875475007308,-0.15229465068693365
1742916964.370328,1.00284,0.0030499999999999998,0.023058,-0.08750000000000001,0.28,0.5425000000000001,-0.21689564454837768,0.1905875475007308,-0.15229465068693365
1742916964.3751955,1.003816,0.0030499999999999998,0.024034,-0.12250000000000001,0.14,0.49000000000000005,-0.21689564454837768,0.1905875475007308,-0.15229465068693365
1742916964.3800669,1.00589,0.002562,0.021594,-0.12250000000000001,0.0,0.36750000000000005,-0.21689564454837768,0.1905875475007308,-0.15229465068693365
1742916964.3856442,1.007598,0.003538,0.021106,-0.14,0.14,0.42000000000000004,-0.21689564454837768,0.1905875475007308,-0.15229465068693365
1742916964.3898046,1.007476,0.004026,0.022692,0.0175,0.15750000000000003,0.1925,-0.21221864951768488,0.1841566793335282,-0.1584332066647179
1742916964.394674,1.004426,0.002928,0.022326,0.0175,-0.052500000000000005,0.2625,-0.21221864951768488,0.1841566793335282,-0.1584332066647179
1742916964.399539,1.004914,0.004758,0.023302,-0.14,0.5075000000000001,0.7525000000000001,-0.21221864951768488,0.1841566793335282,-0.1584332066647179
1742916964.4044075,1.005646,0.0026839999999999998,0.025254,-0.10500000000000001,0.28,0.5950000000000001,-0.21221864951768488,0.1841566793335282,-0.1584332066647179
1742916964.4092739,1.007476,0.00366,0.020862,-0.10500000000000001,0.22750000000000004,0.525,-0.21221864951768488,0.1841566793335282,-0.1584332066647179
1742916964.4141414,1.003206,0.000244,0.021106,-0.17500000000000002,0.1925,0.43750000000000006,-0.21221864951768488,0.1841566793335282,-0.1584332066647179
1742916964.4190083,1.003084,0.0026839999999999998,0.023546,-0.17500000000000002,0.17500000000000002,0.35000000000000003,-0.21221864951768488,0.1841566793335282,-0.1584332066647179
1742916964.4238768,1.004304,0.003904,0.023058,-0.17500000000000002,0.08750000000000001,0.22750000000000004,-0.21221864951768488,0.1841566793335282,-0.1584332066647179
1742916964.4287474,1.005524,0.0034159999999999998,0.022448,-0.21000000000000002,0.10500000000000001,0.3325,-0.21221864951768488,0.1841566793335282,-0.1584332066647179
1742916964.433616,1.006988,0.004392,0.02013,-0.1925,0.1925,0.385,-0.21221864951768488,0.1841566793335282,-0.1584332066647179
1742916964.439196,1.006622,0.003538,0.020007999999999998,-0.17500000000000002,-0.07,0.3325,-0.21689564454837768,0.18181818181818182,-0.15375621163402514
1742916964.4433568,1.006622,0.003538,0.020007999999999998,-0.052500000000000005,0.43750000000000006,0.8575,-0.21689564454837768,0.18181818181818182,-0.15375621163402514
1742916964.448223,1.003938,0.00122,0.023058,-0.035,0.07,0.36750000000000005,-0.21689564454837768,0.18181818181818182,-0.15375621163402514
1742916964.453095,1.005036,0.000976,0.023667999999999998,-0.12250000000000001,0.17500000000000002,0.4025,-0.21689564454837768,0.18181818181818182,-0.15375621163402514
1742916964.4579625,1.00406,0.000488,0.021838,-0.035,0.15750000000000003,0.36750000000000005,-0.21689564454837768,0.18181818181818182,-0.15375621163402514
1742916964.4628353,1.005036,0.00244,0.022935999999999998,-0.07,0.17500000000000002,0.385,-0.21689564454837768,0.18181818181818182,-0.15375621163402514
1742916964.4677005,1.00467,0.002806,0.022082,-0.07,0.07,0.31500000000000006,-0.21689564454837768,0.18181818181818182,-0.15375621163402514
1742916964.4725685,1.007598,0.002806,0.02013,-0.052500000000000005,0.08750000000000001,0.42000000000000004,-0.21689564454837768,0.18181818181818182,-0.15375621163402514
1742916964.4774368,1.006622,0.003904,0.022935999999999998,-0.10500000000000001,0.17500000000000002,0.49000000000000005,-0.21689564454837768,0.18181818181818182,-0.15375621163402514
1742916964.4823027,1.006622,0.00183,0.021716,-0.12250000000000001,0.17500000000000002,0.47250000000000003,-0.21689564454837768,0.18181818181818182,-0.15375621163402514
1742916964.4871762,1.005402,0.000488,0.019154,-0.1925,-0.052500000000000005,0.10500000000000001,-0.21397252265419467,0.17831043554516224,-0.15960245542239113
1742916964.4927623,1.00345,0.00244,0.024156,-0.12250000000000001,0.35000000000000003,0.8225000000000001,-0.21397252265419467,0.17831043554516224,-0.15960245542239113
1742916964.4969141,1.003572,0.0026839999999999998,0.024034,-0.10500000000000001,0.5775,0.665,-0.21397252265419467,0.17831043554516224,-0.15960245542239113
1742916964.5017858,1.006866,0.0030499999999999998,0.020984,-0.0175,0.17500000000000002,0.29750000000000004,-0.21397252265419467,0.17831043554516224,-0.15960245542239113
1742916964.5066507,1.00467,0.002196,0.021838,0.0,0.28,0.47250000000000003,-0.21397252265419467,0.17831043554516224,-0.15960245542239113
1742916964.5115173,1.004914,0.0037819999999999998,0.02562,-0.0175,0.17500000000000002,0.42000000000000004,-0.21397252265419467,0.17831043554516224,-0.15960245542239113
1742916964.5163848,1.005768,0.0030499999999999998,0.025498,0.0,0.12250000000000001,0.385,-0.21397252265419467,0.17831043554516224,-0.15960245542239113
1742916964.5212557,1.003694,0.002196,0.02379,0.052500000000000005,-0.0175,0.24500000000000002,-0.21397252265419467,0.17831043554516224,-0.15960245542239113
1742916964.5261228,1.006134,0.003538,0.021228,0.0175,0.07,0.4025,-0.21397252265419467,0.17831043554516224,-0.15960245542239113
1742916964.53099,1.008452,0.003538,0.02257,0.07,0.14,0.385,-0.21397252265419467,0.17831043554516224,-0.15960245542239113
1742916964.5358574,1.004914,0.0013419999999999999,0.021471999999999998,0.08750000000000001,0.12250000000000001,0.29750000000000004,-0.21455714703303128,0.17421806489330605,-0.15463314820228002
1742916964.5407288,1.00406,0.002196,0.021594,0.07,0.0175,0.77,-0.21455714703303128,0.17421806489330605,-0.15463314820228002
1742916964.5463037,1.007476,0.002562,0.021594,-0.0175,0.31500000000000006,0.6300000000000001,-0.21455714703303128,0.17421806489330605,-0.15463314820228002
1742916964.5504653,1.004304,0.0042699999999999995,0.021594,-0.17500000000000002,0.2625,0.43750000000000006,-0.21455714703303128,0.17421806489330605,-0.15463314820228002
1742916964.5553272,1.003328,0.002928,0.024766,0.0,0.07,0.3325,-0.21455714703303128,0.17421806489330605,-0.15463314820228002
1742916964.5602005,1.003328,0.00183,0.02379,-0.0175,0.0175,0.36750000000000005,-0.21455714703303128,0.17421806489330605,-0.15463314820228002
1742916964.56507,1.005646,0.0017079999999999999,0.02257,0.0,0.14,0.385,-0.21455714703303128,0.17421806489330605,-0.15463314820228002
1742916964.5699346,1.006744,0.004758,0.023667999999999998,-0.0175,0.12250000000000001,0.35000000000000003,-0.21455714703303128,0.17421806489330605,-0.15463314820228002
1742916964.5748026,1.006866,0.001952,0.022814,-0.0175,0.15750000000000003,0.42000000000000004,-0.21455714703303128,0.17421806489330605,-0.15463314820228002
1742916964.5796685,1.00406,0.00244,0.01952,0.0,0.14,0.35000000000000003,-0.21455714703303128,0.17421806489330605,-0.15463314820228002
1742916964.5845377,1.005158,0.004026,0.023302,-0.035,-0.052500000000000005,0.31500000000000006,-0.21689564454837768,0.17831043554516224,-0.15200233849751535
1742916964.5894089,1.006012,0.003294,0.022448,-0.0175,0.7525000000000001,1.225,-0.21689564454837768,0.17831043554516224,-0.15200233849751535
1742916964.5942786,1.00467,0.001952,0.021716,0.08750000000000001,0.5075000000000001,0.5950000000000001,-0.21689564454837768,0.17831043554516224,-0.15200233849751535
1742916964.5998554,1.005158,0.004148,0.02318,0.052500000000000005,0.3325,0.49000000000000005,-0.21689564454837768,0.17831043554516224,-0.15200233849751535
1742916964.6040177,1.005768,0.003172,0.025986,-0.07,0.45500000000000007,0.5950000000000001,-0.21689564454837768,0.17831043554516224,-0.15200233849751535
1742916964.6088862,1.002474,0.003904,0.023667999999999998,-0.10500000000000001,0.14,0.42000000000000004,-0.21689564454837768,0.17831043554516224,-0.15200233849751535
1742916964.6137528,1.002474,0.0013419999999999999,0.022326,0.035,0.24500000000000002,0.5075000000000001,-0.21689564454837768,0.17831043554516224,-0.15200233849751535
1742916964.6186192,1.005646,0.003294,0.023912,0.0,0.15750000000000003,0.45500000000000007,-0.21689564454837768,0.17831043554516224,-0.15200233849751535
1742916964.6234887,1.004914,0.003294,0.023667999999999998,-0.0175,0.28,0.56,-0.21689564454837768,0.17831043554516224,-0.15200233849751535
1742916964.6283584,1.003572,0.003904,0.022326,0.035,0.1925,0.525,-0.21631102016954107,0.17772581116632563,-0.1619409529377375
1742916964.6332326,1.006988,0.0037819999999999998,0.022203999999999998,0.0,-0.035,0.15750000000000003,-0.21631102016954107,0.17772581116632563,-0.1619409529377375
1742916964.6380937,1.005158,0.0050019999999999995,0.023424,0.0175,0.35000000000000003,0.77,-0.21631102016954107,0.17772581116632563,-0.1619409529377375
1742916964.6429627,1.00406,0.0037819999999999998,0.023302,-0.052500000000000005,0.35000000000000003,0.5425000000000001,-0.21631102016954107,0.17772581116632563,-0.1619409529377375
1742916964.6478333,1.004304,0.004148,0.022692,0.0,0.3325,0.5425000000000001,-0.21631102016954107,0.17772581116632563,-0.1619409529377375
1742916964.653411,1.003816,0.00366,0.023302,0.0175,0.28,0.5950000000000001,-0.21631102016954107,0.17772581116632563,-0.1619409529377375
1742916964.6575725,1.00162,0.00244,0.02318,0.0175,0.28,0.385,-0.21631102016954107,0.17772581116632563,-0.1619409529377375
1742916964.662441,1.003816,0.001586,0.021471999999999998,-0.14,0.1925,0.45500000000000007,-0.21631102016954107,0.17772581116632563,-0.1619409529377375
1742916964.6673067,1.006012,0.0026839999999999998,0.023667999999999998,0.035,0.22750000000000004,0.49000000000000005,-0.21631102016954107,0.17772581116632563,-0.1619409529377375
1742916964.6721761,1.006988,0.004514,0.021716,-0.035,0.24500000000000002,0.47250000000000003,-0.21631102016954107,0.17772581116632563,-0.1619409529377375
1742916964.6770453,1.004426,0.002196,0.020862,0.08750000000000001,0.10500000000000001,0.28,-0.2075416544869921,0.182987430575855,-0.1628178895059924
1742916964.6819115,1.005768,0.004514,0.02196,0.052500000000000005,0.12250000000000001,0.6300000000000001,-0.2075416544869921,0.182987430575855,-0.1628178895059924
1742916964.6867788,1.003938,0.004148,0.022935999999999998,0.0175,0.42000000000000004,0.6475000000000001,-0.2075416544869921,0.182987430575855,-0.1628178895059924
1742916964.6916466,1.004548,0.0026839999999999998,0.023667999999999998,-0.07,0.22750000000000004,0.45500000000000007,-0.2075416544869921,0.182987430575855,-0.1628178895059924
1742916964.6965168,1.005402,0.003294,0.024399999999999998,0.0,0.17500000000000002,0.43750000000000006,-0.2075416544869921,0.182987430575855,-0.1628178895059924
1742916964.7013872,1.003572,0.003172,0.019886,0.0,0.15750000000000003,0.42000000000000004,-0.2075416544869921,0.182987430575855,-0.1628178895059924
1742916964.70696,1.004304,0.002074,0.023302,-0.035,0.17500000000000002,0.43750000000000006,-0.2075416544869921,0.182987430575855,-0.1628178895059924
1742916964.7111237,1.004548,0.004392,0.021838,-0.052500000000000005,0.31500000000000006,0.5425000000000001,-0.2075416544869921,0.182987430575855,-0.1628178895059924
1742916964.7159946,1.004182,0.0026839999999999998,0.021838,-0.10500000000000001,0.10500000000000001,0.385,-0.2075416544869921,0.182987430575855,-0.1628178895059924
1742916964.7208607,1.004426,0.0037819999999999998,0.022814,-0.08750000000000001,0.21000000000000002,0.5075000000000001,-0.2075416544869921,0.182987430575855,-0.1628178895059924
1742916964.7257285,1.003328,0.0017079999999999999,0.021228,-0.07,0.1925,0.4025,-0.21280327389652148,0.17246419175679625,-0.1631102016954107
1742916964.7305982,1.004914,0.0046359999999999995,0.02196,-0.12250000000000001,0.08750000000000001,0.36750000000000005,-0.21280327389652148,0.17246419175679625,-0.1631102016954107
1742916964.7354631,1.006988,0.004758,0.021838,-0.07,0.45500000000000007,0.7000000000000001,-0.21280327389652148,0.17246419175679625,-0.1631102016954107
1742916964.7403326,1.002718,0.0037819999999999998,0.022692,-0.035,0.28,0.45500000000000007,-0.21280327389652148,0.17246419175679625,-0.1631102016954107
1742916964.7452016,1.00345,0.003538,0.02318,-0.052500000000000005,0.22750000000000004,0.49000000000000005,-0.21280327389652148,0.17246419175679625,-0.1631102016954107
1742916964.7500682,1.005524,0.0034159999999999998,0.02379,-0.10500000000000001,0.22750000000000004,0.49000000000000005,-0.21280327389652148,0.17246419175679625,-0.1631102016954107
1742916964.7549384,1.005768,0.002074,0.02318,-0.17500000000000002,0.22750000000000004,0.43750000000000006,-0.21280327389652148,0.17246419175679625,-0.1631102016954107
1742916964.7605426,1.005402,0.003294,0.021228,-0.15750000000000003,0.29750000000000004,0.5950000000000001,-0.21280327389652148,0.17246419175679625,-0.1631102016954107
1742916964.7646759,1.004304,0.004026,0.022935999999999998,-0.052500000000000005,0.29750000000000004,0.5950000000000001,-0.21280327389652148,0.17246419175679625,-0.1631102016954107
1742916964.769542,1.005158,0.001464,0.021594,-0.15750000000000003,0.21000000000000002,0.385,-0.21280327389652148,0.17246419175679625,-0.1631102016954107
1742916964.774409,1.003816,0.003904,0.02318,-0.08750000000000001,0.17500000000000002,0.21000000000000002,-0.21689564454837768,0.17655656240865245,-0.163402513884829
1742916964.7792819,1.006988,0.003538,0.023546,-0.14,0.49000000000000005,0.7875000000000001,-0.21689564454837768,0.17655656240865245,-0.163402513884829
1742916964.784148,1.004914,0.003172,0.023667999999999998,-0.15750000000000003,0.28,0.525,-0.21689564454837768,0.17655656240865245,-0.163402513884829
1742916964.7890177,1.006012,0.004758,0.024034,-0.17500000000000002,0.2625,0.49000000000000005,-0.21689564454837768,0.17655656240865245,-0.163402513884829
1742916964.7938843,1.00589,0.00366,0.02257,-0.10500000000000001,0.2625,0.49000000000000005,-0.21689564454837768,0.17655656240865245,-0.163402513884829
1742916964.7987516,1.003572,0.003172,0.022814,-0.12250000000000001,0.22750000000000004,0.45500000000000007,-0.21689564454837768,0.17655656240865245,-0.163402513884829
1742916964.8036196,1.005402,0.004026,0.023058,-0.17500000000000002,0.24500000000000002,0.45500000000000007,-0.21689564454837768,0.17655656240865245,-0.163402513884829
1742916964.8084922,1.004304,0.003294,0.02257,-0.08750000000000001,0.24500000000000002,0.45500000000000007,-0.21689564454837768,0.17655656240865245,-0.163402513884829
1742916964.8140762,1.006988,0.002562,0.024034,-0.07,0.2625,0.49000000000000005,-0.21689564454837768,0.17655656240865245,-0.163402513884829
1742916964.8182507,1.003572,0.002562,0.02257,-0.052500000000000005,0.28,0.47250000000000003,-0.21689564454837768,0.17655656240865245,-0.163402513884829
1742916964.8231103,1.004426,0.00488,0.023667999999999998,0.052500000000000005,-0.08750000000000001,0.12250000000000001,-0.2052031569716457,0.17714118678748902,-0.1666179479684303
1742916964.8279731,1.003694,0.004514,0.021471999999999998,0.08750000000000001,0.2625,0.7350000000000001,-0.2052031569716457,0.17714118678748902,-0.1666179479684303
1742916964.8328507,1.002962,0.0030499999999999998,0.022326,-0.08750000000000001,0.3325,0.525,-0.2052031569716457,0.17714118678748902,-0.1666179479684303
1742916964.8377166,1.005768,0.00366,0.023302,-0.15750000000000003,0.31500000000000006,0.525,-0.2052031569716457,0.17714118678748902,-0.1666179479684303
1742916964.8425498,1.004914,0.002806,0.022203999999999998,-0.12250000000000001,0.31500000000000006,0.5075000000000001,-0.2052031569716457,0.17714118678748902,-0.1666179479684303
1742916964.847419,1.004304,0.003172,0.023546,-0.07,0.22750000000000004,0.47250000000000003,-0.2052031569716457,0.17714118678748902,-0.1666179479684303
1742916964.852289,1.006256,0.0037819999999999998,0.022326,0.035,0.15750000000000003,0.45500000000000007,-0.2052031569716457,0.17714118678748902,-0.1666179479684303
1742916964.857154,1.006378,0.0042699999999999995,0.02379,0.0,0.1925,0.42000000000000004,-0.2052031569716457,0.17714118678748902,-0.1666179479684303
1742916964.8620265,1.003938,0.0030499999999999998,0.022203999999999998,0.035,0.22750000000000004,0.42000000000000004,-0.2052031569716457,0.17714118678748902,-0.1666179479684303
1742916964.8676212,1.006012,0.002562,0.022326,0.0,0.17500000000000002,0.43750000000000006,-0.21280327389652148,0.17714118678748902,-0.1636948260742473
1742916964.8717635,1.005768,0.00366,0.022692,-0.17500000000000002,0.15750000000000003,0.2625,-0.21280327389652148,0.17714118678748902,-0.1636948260742473
1742916964.876631,1.004426,0.003172,0.02257,-0.21000000000000002,0.10500000000000001,0.36750000000000005,-0.21280327389652148,0.17714118678748902,-0.1636948260742473
1742916964.881506,1.002718,0.0023179999999999997,0.019642,-0.12250000000000001,0.36750000000000005,0.5775,-0.21280327389652148,0.17714118678748902,-0.1636948260742473
1742916964.886373,1.006012,0.002074,0.021471999999999998,-0.0175,0.15750000000000003,0.42000000000000004,-0.21280327389652148,0.17714118678748902,-0.1636948260742473
1742916964.891237,1.004304,0.0034159999999999998,0.020496,-0.08750000000000001,0.15750000000000003,0.45500000000000007,-0.21280327389652148,0.17714118678748902,-0.1636948260742473
1742916964.8961036,1.005524,0.002928,0.024522,-0.10500000000000001,0.24500000000000002,0.49000000000000005,-0.21280327389652148,0.17714118678748902,-0.1636948260742473
1742916964.900973,1.006012,0.0034159999999999998,0.023667999999999998,-0.08750000000000001,0.22750000000000004,0.49000000000000005,-0.21280327389652148,0.17714118678748902,-0.1636948260742473
1742916964.9058404,1.006012,0.0026839999999999998,0.020862,-0.07,0.22750000000000004,0.49000000000000005,-0.21280327389652148,0.17714118678748902,-0.1636948260742473
1742916964.9107075,1.00345,0.0030499999999999998,0.021228,-0.052500000000000005,0.28,0.49000000000000005,-0.21280327389652148,0.17714118678748902,-0.1636948260742473
1742916964.9155786,1.006744,0.005246,0.022326,-0.035,0.22750000000000004,0.3325,-0.21280327389652148,0.18941829874305757,-0.17304881613563286
1742916964.9211547,1.003694,0.002562,0.020496,-0.07,0.0175,0.35000000000000003,-0.21280327389652148,0.18941829874305757,-0.17304881613563286
1742916964.925317,1.005768,0.003538,0.024644,-0.035,0.5950000000000001,0.805,-0.21280327389652148,0.18941829874305757,-0.17304881613563286
1742916964.930183,1.00467,0.002928,0.023058,-0.14,0.2625,0.47250000000000003,-0.21280327389652148,0.18941829874305757,-0.17304881613563286
1742916964.9350498,1.002718,0.0034159999999999998,0.02196,-0.035,0.31500000000000006,0.5075000000000001,-0.21280327389652148,0.18941829874305757,-0.17304881613563286
1742916964.9399178,1.006622,0.00488,0.024278,-0.052500000000000005,0.2625,0.47250000000000003,-0.21280327389652148,0.18941829874305757,-0.17304881613563286
1742916964.9447868,1.005646,0.002562,0.020496,-0.08750000000000001,0.21000000000000002,0.43750000000000006,-0.21280327389652148,0.18941829874305757,-0.17304881613563286
1742916964.9496684,1.004304,0.002196,0.02196,-0.08750000000000001,0.21000000000000002,0.45500000000000007,-0.21280327389652148,0.18941829874305757,-0.17304881613563286
1742916964.954535,1.00467,0.001464,0.022082,-0.035,0.14,0.42000000000000004,-0.21280327389652148,0.18941829874305757,-0.17304881613563286
1742916964.9593909,1.004914,0.002928,0.023424,-0.1925,0.17500000000000002,0.43750000000000006,-0.21280327389652148,0.18941829874305757,-0.17304881613563286
1742916964.96426,1.003938,0.003904,0.022448,-0.14,0.17500000000000002,0.43750000000000006,-0.2087109032446653,0.17772581116632563,-0.166325635779012
1742916964.9691317,1.007598,0.005612,0.023058,-0.1925,-0.07,0.052500000000000005,-0.2087109032446653,0.17772581116632563,-0.166325635779012
1742916964.9747057,1.005524,0.003172,0.021838,-0.08750000000000001,0.4025,0.8400000000000001,-0.2087109032446653,0.17772581116632563,-0.166325635779012
1742916964.9788682,1.00528,0.00244,0.02318,-0.052500000000000005,0.36750000000000005,0.6475000000000001,-0.2087109032446653,0.17772581116632563,-0.166325635779012
1742916964.9837356,1.00345,0.0026839999999999998,0.021106,-0.07,0.08750000000000001,0.3325,-0.2087109032446653,0.17772581116632563,-0.166325635779012
1742916964.9885998,1.006012,0.000122,0.021471999999999998,-0.17500000000000002,0.14,0.43750000000000006,-0.2087109032446653,0.17772581116632563,-0.166325635779012
1742916964.9934688,1.00406,0.002806,0.020252,-0.14,0.15750000000000003,0.45500000000000007,-0.2087109032446653,0.17772581116632563,-0.166325635779012
1742916964.9983375,1.006866,0.0042699999999999995,0.023058,-0.10500000000000001,0.15750000000000003,0.45500000000000007,-0.2087109032446653,0.17772581116632563,-0.166325635779012
1742916965.0032043,1.004792,0.0030499999999999998,0.02135,-0.15750000000000003,0.15750000000000003,0.45500000000000007,-0.2087109032446653,0.17772581116632563,-0.166325635779012
1742916965.0080745,1.005158,0.004148,0.021106,-0.10500000000000001,0.17500000000000002,0.49000000000000005,-0.2087109032446653,0.17772581116632563,-0.166325635779012
1742916965.012945,1.006012,0.00488,0.023912,-0.10500000000000001,-0.035,0.052500000000000005,-0.2069570301081555,0.17889505992399882,-0.1619409529377375
1742916965.0178099,1.005646,0.003538,0.02257,-0.07,0.21000000000000002,0.77,-0.2069570301081555,0.17889505992399882,-0.1619409529377375
1742916965.0226789,1.005646,0.0034159999999999998,0.021716,-0.17500000000000002,0.42000000000000004,0.5775,-0.2069570301081555,0.17889505992399882,-0.1619409529377375
1742916965.0282645,1.00528,0.0050019999999999995,0.020739999999999998,-0.10500000000000001,0.385,0.5075000000000001,-0.2069570301081555,0.17889505992399882,-0.1619409529377375
1742916965.032417,1.00528,0.0050019999999999995,0.022326,0.0,0.45500000000000007,0.47250000000000003,-0.2069570301081555,0.17889505992399882,-0.1619409529377375
1742916965.0372856,1.003694,0.004392,0.02257,-0.14,0.17500000000000002,0.43750000000000006,-0.2069570301081555,0.17889505992399882,-0.1619409529377375
1742916965.042154,1.003938,0.002562,0.02135,-0.10500000000000001,0.2625,0.56,-0.2069570301081555,0.17889505992399882,-0.1619409529377375
1742916965.0470202,1.006012,0.0030499999999999998,0.022814,-0.07,0.1925,0.49000000000000005,-0.2069570301081555,0.17889505992399882,-0.1619409529377375
1742916965.051887,1.004792,0.00244,0.02318,-0.15750000000000003,0.21000000000000002,0.45500000000000007,-0.2069570301081555,0.17889505992399882,-0.1619409529377375
1742916965.0567586,1.004304,0.0037819999999999998,0.022935999999999998,-0.14,0.22750000000000004,0.4025,-0.2069570301081555,0.17889505992399882,-0.1619409529377375
1742916965.061626,1.005036,0.005856,0.022935999999999998,-0.052500000000000005,0.08750000000000001,0.17500000000000002,-0.2098801520023385,0.18006430868167203,-0.1601870798012277
1742916965.0664937,1.005768,0.005124,0.023302,-0.17500000000000002,-0.17500000000000002,0.1925,-0.2098801520023385,0.18006430868167203,-0.1601870798012277
1742916965.07136,1.005036,0.002562,0.024278,-0.12250000000000001,0.36750000000000005,0.8225000000000001,-0.2098801520023385,0.18006430868167203,-0.1601870798012277
1742916965.0762358,1.00772,0.003294,0.022082,-0.14,0.24500000000000002,0.5075000000000001,-0.2098801520023385,0.18006430868167203,-0.1601870798012277
1742916965.0818257,1.007964,0.00122,0.02135,-0.1925,0.22750000000000004,0.49000000000000005,-0.2098801520023385,0.18006430868167203,-0.1601870798012277
1742916965.085969,1.004914,0.003172,0.022692,-0.14,0.42000000000000004,0.6300000000000001,-0.2098801520023385,0.18006430868167203,-0.1601870798012277
1742916965.0908349,1.00467,0.004392,0.024034,-0.1925,0.21000000000000002,0.31500000000000006,-0.2098801520023385,0.18006430868167203,-0.1601870798012277
1742916965.0957024,1.005768,0.001464,0.022692,-0.15750000000000003,0.1925,0.49000000000000005,-0.2098801520023385,0.18006430868167203,-0.1601870798012277
1742916965.1005714,1.003328,0.0030499999999999998,0.022203999999999998,-0.1925,0.052500000000000005,0.31500000000000006,-0.2098801520023385,0.18006430868167203,-0.1601870798012277
1742916965.1054385,1.006134,0.005612,0.024644,-0.14,0.17500000000000002,0.45500000000000007,-0.2098801520023385,0.18006430868167203,-0.1601870798012277
1742916965.1103063,1.007476,0.0034159999999999998,0.020618,-0.24500000000000002,0.15750000000000003,0.43750000000000006,-0.22332651271558024,0.182987430575855,-0.1598947676118094
1742916965.1151752,1.006378,0.000732,0.02135,-0.15750000000000003,-0.052500000000000005,0.17500000000000002,-0.22332651271558024,0.182987430575855,-0.1598947676118094
1742916965.1200454,1.004914,0.005978,0.02318,-0.22750000000000004,0.43750000000000006,0.7350000000000001,-0.22332651271558024,0.182987430575855,-0.1598947676118094
1742916965.1249137,1.005158,0.004514,0.022935999999999998,-0.17500000000000002,0.29750000000000004,0.4025,-0.22332651271558024,0.182987430575855,-0.1598947676118094
1742916965.1297834,1.0065,0.003538,0.022082,-0.22750000000000004,0.29750000000000004,0.47250000000000003,-0.22332651271558024,0.182987430575855,-0.1598947676118094
1742916965.1412778,1.005646,0.003904,0.02379,-0.21000000000000002,0.35000000000000003,0.5950000000000001,-0.22332651271558024,0.182987430575855,-0.1598947676118094
1742916965.1441467,1.004304,0.003538,0.022935999999999998,-0.10500000000000001,0.31500000000000006,0.5075000000000001,-0.22332651271558024,0.182987430575855,-0.1598947676118094
1742916965.1490161,1.002596,0.004148,0.021838,-0.22750000000000004,0.052500000000000005,0.2625,-0.22332651271558024,0.182987430575855,-0.1598947676118094
1742916965.1538827,1.004182,0.003172,0.021838,-0.21000000000000002,0.1925,0.42000000000000004,-0.22332651271558024,0.182987430575855,-0.1598947676118094
1742916965.1587505,1.005402,0.002074,0.021228,-0.24500000000000002,-0.035,0.0175,-0.21806489330605086,0.17772581116632563,-0.15901783104355452
1742916965.1636186,1.007354,0.003294,0.022082,-0.22750000000000004,0.17500000000000002,0.6475000000000001,-0.21806489330605086,0.17772581116632563,-0.15901783104355452
1742916965.1684844,1.006256,0.003904,0.02196,-0.14,0.29750000000000004,0.45500000000000007,-0.21806489330605086,0.17772581116632563,-0.15901783104355452
1742916965.1733525,1.00589,0.00366,0.021716,-0.15750000000000003,0.22750000000000004,0.4025,-0.21806489330605086,0.17772581116632563,-0.15901783104355452
1742916965.17822,1.003816,0.0023179999999999997,0.021594,-0.14,0.22750000000000004,0.5075000000000001,-0.21806489330605086,0.17772581116632563,-0.15901783104355452
1742916965.1830876,1.004182,0.004026,0.024399999999999998,-0.22750000000000004,0.29750000000000004,0.49000000000000005,-0.21806489330605086,0.17772581116632563,-0.15901783104355452
1742916965.1879582,1.004914,0.004758,0.023424,-0.17500000000000002,0.2625,0.525,-0.21806489330605086,0.17772581116632563,-0.15901783104355452
1742916965.1957655,1.006012,0.003172,0.021228,-0.10500000000000001,0.2625,0.6300000000000001,-0.21806489330605086,0.17772581116632563,-0.15901783104355452
1742916965.1986322,1.006622,0.0034159999999999998,0.021594,-0.10500000000000001,0.2625,0.6300000000000001,-0.21806489330605086,0.17772581116632563,-0.15901783104355452
1742916965.2035024,1.004792,0.003172,0.021228,-0.0175,0.2625,0.3325,-0.21806489330605086,0.17772581116632563,-0.15901783104355452
1742916965.2083657,1.006012,0.00244,0.019886,0.0175,-0.07,0.21000000000000002,-0.21221864951768488,0.17947968430283542,-0.1616486407483192
1742916965.2132342,1.005524,0.004392,0.021106,-0.035,-0.10500000000000001,0.36750000000000005,-0.21221864951768488,0.17947968430283542,-0.1616486407483192
1742916965.2181165,1.006256,0.0037819999999999998,0.022448,-0.052500000000000005,0.43750000000000006,0.7350000000000001,-0.21221864951768488,0.17947968430283542,-0.1616486407483192
1742916965.2230859,1.004426,0.004148,0.02013,-0.08750000000000001,0.28,0.43750000000000006,-0.21221864951768488,0.17947968430283542,-0.1616486407483192
1742916965.2279186,1.00406,0.002196,0.020374,0.0,0.21000000000000002,0.47250000000000003,-0.21221864951768488,0.17947968430283542,-0.1616486407483192
1742916965.2327485,1.006134,0.0042699999999999995,0.020496,-0.035,0.12250000000000001,0.49000000000000005,-0.21221864951768488,0.17947968430283542,-0.1616486407483192
1742916965.2376146,1.006012,0.004148,0.02318,-0.14,0.28,0.5075000000000001,-0.21221864951768488,0.17947968430283542,-0.1616486407483192
1742916965.2424967,1.00711,0.004148,0.023667999999999998,-0.14,0.24500000000000002,0.4025,-0.21221864951768488,0.17947968430283542,-0.1616486407483192
1742916965.2497206,1.00589,0.00366,0.02135,-0.035,0.21000000000000002,0.47250000000000003,-0.21221864951768488,0.17947968430283542,-0.1616486407483192
1742916965.2525928,1.004304,0.004026,0.021106,-0.052500000000000005,0.36750000000000005,0.5950000000000001,-0.21221864951768488,0.17772581116632563,-0.1639871382636656
1742916965.2574608,1.0065,0.005246,0.02318,-0.035,-0.45500000000000007,-0.17500000000000002,-0.21572639579070446,0.17772581116632563,-0.1639871382636656
1742916965.262329,1.00711,0.002196,0.020739999999999998,-0.07,0.49000000000000005,0.9275000000000001,-0.21572639579070446,0.17772581116632563,-0.1639871382636656
1742916965.2671964,1.005524,0.002562,0.022326,-0.10500000000000001,0.3325,0.56,-0.21572639579070446,0.17772581116632563,-0.1639871382636656
1742916965.2720635,1.006012,0.0042699999999999995,0.021471999999999998,-0.08750000000000001,0.3325,0.5075000000000001,-0.21572639579070446,0.17772581116632563,-0.1639871382636656
1742916965.276936,1.004914,0.002928,0.022082,-0.10500000000000001,0.3325,0.5425000000000001,-0.21572639579070446,0.17772581116632563,-0.1639871382636656
1742916965.2818062,1.003328,0.002806,0.021716,-0.12250000000000001,0.21000000000000002,0.5425000000000001,-0.21572639579070446,0.17772581116632563,-0.1639871382636656
1742916965.2866743,1.002962,0.001586,0.020862,-0.12250000000000001,0.24500000000000002,0.525,-0.21572639579070446,0.17772581116632563,-0.1639871382636656
1742916965.2915416,1.004548,0.003294,0.02318,-0.10500000000000001,0.2625,0.47250000000000003,-0.21572639579070446,0.17772581116632563,-0.1639871382636656
1742916965.2964082,1.005158,0.002562,0.021594,-0.15750000000000003,0.07,0.2625,-0.21572639579070446,0.17772581116632563,-0.1639871382636656
1742916965.3028028,1.004792,0.001098,0.020618,-0.12250000000000001,0.035,0.15750000000000003,-0.22683425898859982,0.17538731365097926,-0.15726395790704473
1742916965.306149,1.004914,0.001586,0.02257,-0.12250000000000001,0.035,0.15750000000000003,-0.22683425898859982,0.17538731365097926,-0.15726395790704473
1742916965.3110144,1.004792,0.002806,0.021716,-0.10500000000000001,0.1925,0.45500000000000007,-0.22683425898859982,0.17538731365097926,-0.15726395790704473
1742916965.3158832,1.005158,0.001586,0.021838,-0.12250000000000001,0.14,0.47250000000000003,-0.22683425898859982,0.17538731365097926,-0.15726395790704473
1742916965.3207521,1.005158,0.0042699999999999995,0.021716,-0.12250000000000001,0.17500000000000002,0.47250000000000003,-0.22683425898859982,0.17538731365097926,-0.15726395790704473
1742916965.3256187,1.00711,0.002196,0.021106,-0.14,0.17500000000000002,0.42000000000000004,-0.22683425898859982,0.17538731365097926,-0.15726395790704473
1742916965.3304908,1.005768,0.001098,0.020984,-0.14,0.17500000000000002,0.42000000000000004,-0.22683425898859982,0.17538731365097926,-0.15726395790704473
1742916965.335357,1.004548,0.0034159999999999998,0.022814,-0.14,0.21000000000000002,0.47250000000000003,-0.22683425898859982,0.17538731365097926,-0.15726395790704473
1742916965.3402255,1.006256,0.0030499999999999998,0.019154,-0.07,0.22750000000000004,0.49000000000000005,-0.22683425898859982,0.17538731365097926,-0.15726395790704473
1742916965.345095,1.004426,0.003172,0.022814,-0.10500000000000001,0.24500000000000002,0.5075000000000001,-0.22683425898859982,0.17538731365097926,-0.15726395790704473
1742916965.3499606,1.004548,0.0026839999999999998,0.020739999999999998,-0.08750000000000001,0.14,0.29750000000000004,-0.21514177141186788,0.17655656240865245,-0.1645717626425022
1742916965.3558826,1.004426,0.0037819999999999998,0.022692,-0.08750000000000001,0.035,0.4025,-0.21514177141186788,0.17655656240865245,-0.1645717626425022
1742916965.3597043,1.00467,0.0034159999999999998,0.02257,-0.052500000000000005,0.45500000000000007,0.665,-0.21514177141186788,0.17655656240865245,-0.1645717626425022
1742916965.364567,1.00467,0.004392,0.020739999999999998,-0.052500000000000005,0.035,0.24500000000000002,-0.21514177141186788,0.17655656240865245,-0.1645717626425022
1742916965.3694375,1.00589,0.004148,0.021228,-0.12250000000000001,0.07,0.4025,-0.21514177141186788,0.17655656240865245,-0.1645717626425022
1742916965.3743045,1.005524,0.004514,0.018178,-0.12250000000000001,0.15750000000000003,0.45500000000000007,-0.21514177141186788,0.17655656240865245,-0.1645717626425022
1742916965.3791707,1.006134,0.002562,0.019032,-0.15750000000000003,0.15750000000000003,0.47250000000000003,-0.21514177141186788,0.17655656240865245,-0.1645717626425022
1742916965.3840396,1.00711,0.0030499999999999998,0.024034,-0.22750000000000004,0.14,0.43750000000000006,-0.21514177141186788,0.17655656240865245,-0.1645717626425022
1742916965.3889062,1.00406,0.0042699999999999995,0.020374,-0.15750000000000003,0.035,0.36750000000000005,-0.21514177141186788,0.17655656240865245,-0.1645717626425022
1742916965.3937795,1.005646,0.001952,0.019275999999999998,-0.15750000000000003,0.22750000000000004,0.36750000000000005,-0.21514177141186788,0.17655656240865245,-0.1645717626425022
1742916965.3986435,1.00467,0.0034159999999999998,0.022082,-0.1925,0.22750000000000004,0.31500000000000006,-0.21455714703303128,0.18123355743934522,-0.15609470914937154
1742916965.4035158,1.004792,0.002928,0.020252,-0.07,-0.15750000000000003,-0.0175,-0.21455714703303128,0.18123355743934522,-0.15609470914937154
1742916965.409092,1.006378,0.002562,0.020496,-0.10500000000000001,0.5075000000000001,0.8750000000000001,-0.21455714703303128,0.18123355743934522,-0.15609470914937154
1742916965.4132535,1.006378,0.002074,0.02196,-0.052500000000000005,0.43750000000000006,0.665,-0.21455714703303128,0.18123355743934522,-0.15609470914937154
1742916965.418119,1.00467,0.002074,0.021838,-0.052500000000000005,0.10500000000000001,0.31500000000000006,-0.21455714703303128,0.18123355743934522,-0.15609470914937154
1742916965.422985,1.007354,0.0026839999999999998,0.021594,-0.12250000000000001,0.21000000000000002,0.5075000000000001,-0.21455714703303128,0.18123355743934522,-0.15609470914937154
1742916965.4278533,1.004792,0.001952,0.023424,-0.15750000000000003,0.15750000000000003,0.385,-0.21455714703303128,0.18123355743934522,-0.15609470914937154
1742916965.4327214,1.006866,0.00366,0.020496,-0.12250000000000001,0.1925,0.45500000000000007,-0.21455714703303128,0.18123355743934522,-0.15609470914937154
1742916965.437591,1.0065,0.001464,0.019764,-0.10500000000000001,0.17500000000000002,0.42000000000000004,-0.21455714703303128,0.18123355743934522,-0.15609470914937154
1742916965.4424567,1.007232,0.00244,0.021838,-0.10500000000000001,0.1925,0.4025,-0.21455714703303128,0.18123355743934522,-0.15609470914937154
1742916965.4473252,1.006012,0.003904,0.020007999999999998,-0.12250000000000001,0.24500000000000002,0.15750000000000003,-0.22098801520023384,0.18006430868167203,-0.15667933352820812
1742916965.4521925,1.003572,0.00183,0.022082,-0.14,0.1925,0.77,-0.22098801520023384,0.18006430868167203,-0.15667933352820812
1742916965.4570634,1.004792,0.00244,0.024766,-0.1925,0.3325,0.6300000000000001,-0.22098801520023384,0.18006430868167203,-0.15667933352820812
1742916965.462656,1.006744,0.0017079999999999999,0.020862,-0.17500000000000002,0.1925,0.525,-0.22098801520023384,0.18006430868167203,-0.15667933352820812
1742916965.4667952,1.006744,0.0017079999999999999,0.020862,-0.12250000000000001,0.1925,0.385,-0.22098801520023384,0.18006430868167203,-0.15667933352820812
1742916965.47167,1.005158,0.003904,0.02318,-0.12250000000000001,0.052500000000000005,0.3325,-0.22098801520023384,0.18006430868167203,-0.15667933352820812
1742916965.4765334,1.005646,0.00244,0.021716,-0.08750000000000001,0.17500000000000002,0.385,-0.22098801520023384,0.18006430868167203,-0.15667933352820812
1742916965.4814029,1.006134,0.002806,0.02379,-0.10500000000000001,0.14,0.45500000000000007,-0.22098801520023384,0.18006430868167203,-0.15667933352820812
1742916965.4862795,1.005524,0.0034159999999999998,0.019154,-0.10500000000000001,0.10500000000000001,0.47250000000000003,-0.22098801520023384,0.18006430868167203,-0.15667933352820812
1742916965.491145,1.00772,0.002806,0.022082,-0.052500000000000005,0.15750000000000003,0.42000000000000004,-0.22098801520023384,0.18006430868167203,-0.15667933352820812
1742916965.4960117,1.004914,0.002074,0.019275999999999998,-0.08750000000000001,0.08750000000000001,0.1925,-0.21397252265419467,0.17889505992399882,-0.15960245542239113
1742916965.5008802,1.006134,0.0034159999999999998,0.022935999999999998,-0.035,-0.12250000000000001,0.10500000000000001,-0.21397252265419467,0.17889505992399882,-0.15960245542239113
1742916965.5057478,1.006866,0.002928,0.022692,-0.07,0.45500000000000007,0.7000000000000001,-0.21397252265419467,0.17889505992399882,-0.15960245542239113
1742916965.5106168,1.004914,0.00061,0.020007999999999998,-0.12250000000000001,0.15750000000000003,0.42000000000000004,-0.21397252265419467,0.17889505992399882,-0.15960245542239113
1742916965.5161898,1.005036,0.002928,0.02135,-0.07,0.12250000000000001,0.385,-0.21397252265419467,0.17889505992399882,-0.15960245542239113
1742916965.5203533,1.006988,0.003172,0.019032,-0.052500000000000005,0.2625,0.5425000000000001,-0.21397252265419467,0.17889505992399882,-0.15960245542239113
1742916965.5252223,1.004548,0.002806,0.017934,-0.07,0.052500000000000005,0.31500000000000006,-0.21397252265419467,0.17889505992399882,-0.15960245542239113
1742916965.5300882,1.007232,0.001952,0.021471999999999998,-0.07,0.10500000000000001,0.3325,-0.21397252265419467,0.17889505992399882,-0.15960245542239113
1742916965.5349517,1.007232,0.0026839999999999998,0.021838,-0.08750000000000001,0.10500000000000001,0.3325,-0.21397252265419467,0.17889505992399882,-0.15960245542239113
1742916965.5398235,1.005036,0.0034159999999999998,0.019032,-0.10500000000000001,0.12250000000000001,0.3325,-0.21397252265419467,0.17889505992399882,-0.15960245542239113
1742916965.544689,1.005524,0.0037819999999999998,0.022692,-0.14,0.10500000000000001,0.28,-0.21046477638117508,0.17889505992399882,-0.15492546039169833
1742916965.549556,1.005524,0.003294,0.023424,-0.08750000000000001,-0.21000000000000002,-0.0175,-0.21046477638117508,0.17889505992399882,-0.15492546039169833
1742916965.5544243,1.008086,0.0050019999999999995,0.022082,-0.08750000000000001,0.2625,0.805,-0.21046477638117508,0.17889505992399882,-0.15492546039169833
1742916965.5592937,1.00589,0.0034159999999999998,0.02135,-0.07,0.385,0.525,-0.21046477638117508,0.17889505992399882,-0.15492546039169833
1742916965.5641642,1.003694,0.003538,0.02379,-0.10500000000000001,0.17500000000000002,0.49000000000000005,-0.21046477638117508,0.17889505992399882,-0.15492546039169833
1742916965.569738,1.004182,0.00244,0.020862,-0.10500000000000001,0.15750000000000003,0.5775,-0.21046477638117508,0.17889505992399882,-0.15492546039169833
1742916965.5739021,1.005158,0.002928,0.020862,-0.035,0.14,0.3325,-0.21046477638117508,0.17889505992399882,-0.15492546039169833
1742916965.5787654,1.00711,0.004392,0.022326,-0.0175,0.07,0.43750000000000006,-0.21046477638117508,0.17889505992399882,-0.15492546039169833
1742916965.5836341,1.007232,0.0026839999999999998,0.020618,-0.12250000000000001,0.22750000000000004,0.49000000000000005,-0.21046477638117508,0.17889505992399882,-0.15492546039169833
1742916965.5885046,1.004426,0.002928,0.024888,-0.10500000000000001,0.21000000000000002,0.5075000000000001,-0.21046477638117508,0.17889505992399882,-0.15492546039169833
1742916965.593371,1.005036,0.00122,0.020007999999999998,0.0175,-0.0175,0.15750000000000003,-0.21748026892721425,0.17363344051446947,-0.15171002630809705
1742916965.5982413,1.00467,0.001586,0.021106,-0.08750000000000001,0.0,0.47250000000000003,-0.21748026892721425,0.17363344051446947,-0.15171002630809705
1742916965.6031058,1.006134,0.005612,0.02257,-0.052500000000000005,0.36750000000000005,0.665,-0.21748026892721425,0.17363344051446947,-0.15171002630809705
1742916965.6079743,1.008086,0.003294,0.022692,-0.12250000000000001,0.28,0.49000000000000005,-0.21748026892721425,0.17363344051446947,-0.15171002630809705
1742916965.6128426,1.004182,0.0013419999999999999,0.02013,-0.10500000000000001,0.24500000000000002,0.42000000000000004,-0.21748026892721425,0.17363344051446947,-0.15171002630809705
1742916965.617715,1.004548,0.000366,0.022814,-0.10500000000000001,0.21000000000000002,0.525,-0.21748026892721425,0.17363344051446947,-0.15171002630809705
1742916965.623309,1.006622,0.001464,0.021594,-0.10500000000000001,0.15750000000000003,0.42000000000000004,-0.21748026892721425,0.17363344051446947,-0.15171002630809705
1742916965.627419,1.005158,0.004148,0.023058,-0.12250000000000001,0.1925,0.45500000000000007,-0.21748026892721425,0.17363344051446947,-0.15171002630809705
1742916965.6322827,1.005646,0.002806,0.02257,0.0,0.0175,0.24500000000000002,-0.21748026892721425,0.17363344051446947,-0.15171002630809705
1742916965.63715,1.010526,0.002196,0.021471999999999998,0.035,0.1925,0.36750000000000005,-0.21748026892721425,0.17363344051446947,-0.15171002630809705
1742916965.6420164,1.006378,0.00244,0.021594,0.0,0.15750000000000003,0.3325,-0.21923414206372405,0.18181818181818182,-0.1584332066647179
1742916965.646886,1.003816,0.0023179999999999997,0.021228,-0.035,-0.17500000000000002,-0.052500000000000005,-0.21923414206372405,0.18181818181818182,-0.1584332066647179
1742916965.6517532,1.006378,0.004026,0.023302,0.0,0.36750000000000005,0.8400000000000001,-0.21923414206372405,0.18181818181818182,-0.1584332066647179
1742916965.6566222,1.006866,0.002806,0.021228,0.0,0.29750000000000004,0.525,-0.21923414206372405,0.18181818181818182,-0.1584332066647179
1742916965.6614885,1.00528,0.001464,0.023058,-0.052500000000000005,0.12250000000000001,0.385,-0.21923414206372405,0.18181818181818182,-0.1584332066647179
1742916965.6663573,1.006744,0.000976,0.021228,-0.0175,0.10500000000000001,0.43750000000000006,-0.21923414206372405,0.18181818181818182,-0.1584332066647179
1742916965.671226,1.006256,0.00244,0.020862,-0.035,0.15750000000000003,0.385,-0.21923414206372405,0.18181818181818182,-0.1584332066647179
1742916965.6768346,1.004792,0.002562,0.022203999999999998,-0.035,0.22750000000000004,0.43750000000000006,-0.21923414206372405,0.18181818181818182,-0.1584332066647179
1742916965.6809654,1.005524,0.00183,0.023424,-0.035,0.22750000000000004,0.29750000000000004,-0.21923414206372405,0.18181818181818182,-0.1584332066647179
1742916965.6858308,1.006866,0.003294,0.021471999999999998,-0.052500000000000005,0.08750000000000001,0.49000000000000005,-0.21923414206372405,0.18181818181818182,-0.1584332066647179
1742916965.6906993,1.004426,0.00122,0.023058,-0.052500000000000005,-0.12250000000000001,0.0,-0.21221864951768488,0.17831043554516224,-0.15872551885413622
1742916965.6955695,1.005768,0.001098,0.022692,-0.0175,0.08750000000000001,0.6300000000000001,-0.21221864951768488,0.17831043554516224,-0.15872551885413622
1742916965.7004368,1.006866,0.00366,0.021838,0.0,0.24500000000000002,0.47250000000000003,-0.21221864951768488,0.17831043554516224,-0.15872551885413622
1742916965.7053058,1.004426,0.002196,0.022692,0.0,0.14,0.36750000000000005,-0.21221864951768488,0.17831043554516224,-0.15872551885413622
1742916965.7101712,1.007232,0.002806,0.022203999999999998,0.035,0.10500000000000001,0.4025,-0.21221864951768488,0.17831043554516224,-0.15872551885413622
1742916965.715037,1.002962,0.002806,0.021838,0.0,0.07,0.385,-0.21221864951768488,0.17831043554516224,-0.15872551885413622
1742916965.7199144,1.004792,0.001464,0.022203999999999998,-0.035,0.10500000000000001,0.42000000000000004,-0.21221864951768488,0.17831043554516224,-0.15872551885413622
1742916965.724787,1.006744,0.004758,0.022935999999999998,0.052500000000000005,0.14,0.42000000000000004,-0.21221864951768488,0.17831043554516224,-0.15872551885413622
1742916965.7303607,1.007232,0.002928,0.023546,0.035,0.10500000000000001,0.43750000000000006,-0.21221864951768488,0.17831043554516224,-0.15872551885413622
1742916965.734513,1.00528,0.002562,0.023302,0.0175,0.22750000000000004,0.5075000000000001,-0.21221864951768488,0.17831043554516224,-0.15872551885413622
1742916965.7393813,1.004548,0.0030499999999999998,0.02135,0.0,-0.035,0.14,-0.21572639579070446,0.1806489330605086,-0.15317158725518853
1742916965.7442474,1.004304,0.000366,0.02196,-0.035,-0.17500000000000002,0.1925,-0.21572639579070446,0.1806489330605086,-0.15317158725518853
1742916965.7491145,1.006256,0.0026839999999999998,0.022692,-0.052500000000000005,0.5075000000000001,0.7350000000000001,-0.21572639579070446,0.1806489330605086,-0.15317158725518853
1742916965.7539828,1.00528,0.0023179999999999997,0.022082,-0.052500000000000005,0.29750000000000004,0.42000000000000004,-0.21572639579070446,0.1806489330605086,-0.15317158725518853
1742916965.758849,1.006256,0.002196,0.021471999999999998,0.07,0.1925,0.42000000000000004,-0.21572639579070446,0.1806489330605086,-0.15317158725518853
1742916965.763715,1.00345,0.0008539999999999999,0.022448,0.035,0.12250000000000001,0.35000000000000003,-0.21572639579070446,0.1806489330605086,-0.15317158725518853
1742916965.7685845,1.006622,0.002806,0.022082,0.035,0.12250000000000001,0.35000000000000003,-0.21572639579070446,0.1806489330605086,-0.15317158725518853
1742916965.7734523,1.00589,0.0030499999999999998,0.02318,0.052500000000000005,0.10500000000000001,0.385,-0.21572639579070446,0.1806489330605086,-0.15317158725518853
1742916965.7783237,1.004182,0.00244,0.022082,0.0,0.14,0.42000000000000004,-0.21572639579070446,0.1806489330605086,-0.15317158725518853
1742916965.78393,1.008086,0.002562,0.021594,0.0,0.17500000000000002,0.5950000000000001,-0.21572639579070446,0.1806489330605086,-0.15317158725518853
1742916965.788062,1.005524,0.003538,0.020007999999999998,0.0175,0.24500000000000002,0.5950000000000001,-0.21981876644256065,0.17889505992399882,-0.15872551885413622
1742916965.7929337,1.004304,0.0034159999999999998,0.022326,-0.0175,-0.08750000000000001,-0.1925,-0.21981876644256065,0.17889505992399882,-0.15872551885413622
1742916965.797797,1.004426,0.0034159999999999998,0.022326,-0.0175,0.28,0.665,-0.21981876644256065,0.17889505992399882,-0.15872551885413622
1742916965.8026626,1.006988,0.003904,0.023058,-0.052500000000000005,0.12250000000000001,0.385,-0.21981876644256065,0.17889505992399882,-0.15872551885413622
1742916965.8075314,1.00528,0.00183,0.02318,0.0,0.1925,0.4025,-0.21981876644256065,0.17889505992399882,-0.15872551885413622
1742916965.8123999,1.005036,0.0026839999999999998,0.024644,-0.0175,0.15750000000000003,0.35000000000000003,-0.21981876644256065,0.17889505992399882,-0.15872551885413622
1742916965.8172693,1.00528,0.004758,0.021838,0.0175,0.1925,0.43750000000000006,-0.21981876644256065,0.17889505992399882,-0.15872551885413622
1742916965.8221338,1.00467,0.003172,0.024156,0.0,0.12250000000000001,0.4025,-0.21981876644256065,0.17889505992399882,-0.15872551885413622
1742916965.8270018,1.007598,0.00366,0.023302,-0.035,0.08750000000000001,0.35000000000000003,-0.21981876644256065,0.17889505992399882,-0.15872551885413622
1742916965.831871,1.006622,0.001098,0.021838,0.0,0.0175,0.45500000000000007,-0.21981876644256065,0.17889505992399882,-0.15872551885413622
1742916965.837447,1.003328,0.00122,0.022814,-0.0175,0.07,0.1925,-0.21923414206372405,0.18123355743934522,-0.15551008477053493
1742916965.8416097,1.00711,0.001464,0.022935999999999998,-0.035,0.08750000000000001,0.525,-0.21923414206372405,0.18123355743934522,-0.15551008477053493
1742916965.8464775,1.00528,0.003904,0.024034,-0.07,0.29750000000000004,0.5950000000000001,-0.21923414206372405,0.18123355743934522,-0.15551008477053493
1742916965.851343,1.005646,0.0046359999999999995,0.024278,-0.07,0.17500000000000002,0.42000000000000004,-0.21923414206372405,0.18123355743934522,-0.15551008477053493
1742916965.8562107,1.005646,0.003538,0.019764,-0.07,0.12250000000000001,0.4025,-0.21923414206372405,0.18123355743934522,-0.15551008477053493
1742916965.8610816,1.005524,0.0042699999999999995,0.022692,-0.035,0.10500000000000001,0.31500000000000006,-0.21923414206372405,0.18123355743934522,-0.15551008477053493
1742916965.8659637,1.006622,0.001464,0.023546,-0.0175,0.12250000000000001,0.42000000000000004,-0.21923414206372405,0.18123355743934522,-0.15551008477053493
1742916965.8708227,1.002962,0.0037819999999999998,0.023058,-0.07,0.15750000000000003,0.5425000000000001,-0.21923414206372405,0.18123355743934522,-0.15551008477053493
1742916965.8756895,1.007354,0.005246,0.022814,-0.10500000000000001,0.17500000000000002,0.5075000000000001,-0.21923414206372405,0.18123355743934522,-0.15551008477053493
1742916965.8805566,1.006256,0.00244,0.022082,-0.10500000000000001,0.14,0.35000000000000003,-0.21923414206372405,0.18123355743934522,-0.15551008477053493
1742916965.88543,1.00406,0.001586,0.02379,-0.035,0.2625,0.47250000000000003,-0.22215726395790705,0.17597193802981584,-0.15697164571762642
1742916965.891025,1.005158,0.002806,0.024034,-0.12250000000000001,-0.22750000000000004,-0.035,-0.22215726395790705,0.17597193802981584,-0.15697164571762642
1742916965.8951662,1.0065,0.004026,0.019886,-0.07,0.525,1.1025,-0.22215726395790705,0.17597193802981584,-0.15697164571762642
1742916965.9000325,1.005646,0.003294,0.021106,-0.07,0.29750000000000004,0.45500000000000007,-0.22215726395790705,0.17597193802981584,-0.15697164571762642
1742916965.9049017,1.007354,0.0037819999999999998,0.021838,-0.10500000000000001,0.17500000000000002,0.525,-0.22215726395790705,0.17597193802981584,-0.15697164571762642
1742916965.9097688,1.004792,0.001586,0.02196,-0.08750000000000001,0.24500000000000002,0.45500000000000007,-0.22215726395790705,0.17597193802981584,-0.15697164571762642
1742916965.914635,1.005524,0.005856,0.023912,-0.14,0.17500000000000002,0.43750000000000006,-0.22215726395790705,0.17597193802981584,-0.15697164571762642
1742916965.9195032,1.00528,0.004148,0.024399999999999998,-0.1925,0.22750000000000004,0.42000000000000004,-0.22215726395790705,0.17597193802981584,-0.15697164571762642
1742916965.9243717,1.004304,0.0017079999999999999,0.022692,-0.08750000000000001,0.10500000000000001,0.385,-0.22215726395790705,0.17597193802981584,-0.15697164571762642
1742916965.9292388,1.005036,0.002196,0.022935999999999998,-0.052500000000000005,0.07,0.4025,-0.22215726395790705,0.17597193802981584,-0.15697164571762642
1742916965.9341083,1.006866,0.0046359999999999995,0.02379,-0.10500000000000001,-0.17500000000000002,-0.08750000000000001,-0.2110494007600117,0.17889505992399882,-0.15434083601286175
1742916965.9389756,1.007964,0.003538,0.024522,-0.07,0.1925,0.8225000000000001,-0.2110494007600117,0.17889505992399882,-0.15434083601286175
1742916965.9445496,1.005158,0.004514,0.023058,-0.035,0.45500000000000007,0.6475000000000001,-0.2110494007600117,0.17889505992399882,-0.15434083601286175
1742916965.948713,1.004182,0.0037819999999999998,0.022814,-0.07,0.31500000000000006,0.49000000000000005,-0.2110494007600117,0.17889505992399882,-0.15434083601286175
1742916965.9535787,1.005646,0.0034159999999999998,0.02318,-0.10500000000000001,0.07,0.31500000000000006,-0.2110494007600117,0.17889505992399882,-0.15434083601286175
1742916965.9584472,1.004792,0.004392,0.022326,-0.08750000000000001,0.14,0.4025,-0.2110494007600117,0.17889505992399882,-0.15434083601286175
1742916965.9633136,1.006378,0.004148,0.022082,-0.0175,0.07,0.22750000000000004,-0.2110494007600117,0.17889505992399882,-0.15434083601286175
1742916965.9681842,1.005036,0.00061,0.022082,-0.035,-0.12250000000000001,0.42000000000000004,-0.2110494007600117,0.17889505992399882,-0.15434083601286175
1742916965.973055,1.004548,0.0046359999999999995,0.02257,-0.07,1.0850000000000002,1.435,-0.2110494007600117,0.17889505992399882,-0.15434083601286175
1742916965.9779203,1.00528,0.0026839999999999998,0.02257,-0.052500000000000005,0.5425000000000001,0.6475000000000001,-0.2110494007600117,0.17889505992399882,-0.15434083601286175
1742916965.9827878,1.004426,0.002562,0.023302,-0.08750000000000001,0.385,0.42000000000000004,-0.22274188833674363,0.17947968430283542,-0.1584332066647179
1742916965.987657,1.006744,0.005612,0.022692,-0.07,0.35000000000000003,0.6300000000000001,-0.22274188833674363,0.17947968430283542,-0.1584332066647179
1742916965.9925284,1.004426,0.00244,0.019886,-0.035,0.5425000000000001,0.7175,-0.22274188833674363,0.17947968430283542,-0.1584332066647179
1742916965.9981139,1.004182,0.00366,0.022448,-0.035,0.5075000000000001,0.6125,-0.22274188833674363,0.17947968430283542,-0.1584332066647179
1742916966.0022645,1.004426,0.00244,0.02135,0.035,0.5775,0.6475000000000001,-0.22274188833674363,0.17947968430283542,-0.1584332066647179
1742916966.007131,1.003938,0.0034159999999999998,0.023058,0.052500000000000005,0.4025,0.56,-0.22274188833674363,0.17947968430283542,-0.1584332066647179
1742916966.0119996,1.003816,0.005856,0.022935999999999998,-0.12250000000000001,0.385,0.5775,-0.22274188833674363,0.17947968430283542,-0.1584332066647179
1742916966.0168695,1.004182,0.00549,0.021594,-0.12250000000000001,0.36750000000000005,0.56,-0.22274188833674363,0.17947968430283542,-0.1584332066647179
1742916966.0217366,1.002596,0.00366,0.020496,-0.07,0.35000000000000003,0.5950000000000001,-0.22274188833674363,0.17947968430283542,-0.1584332066647179
1742916966.026604,1.003938,0.004514,0.023546,-0.14,0.42000000000000004,0.525,-0.22274188833674363,0.17947968430283542,-0.1584332066647179
1742916966.0316057,1.003084,0.003904,0.02135,-0.12250000000000001,0.35000000000000003,0.49000000000000005,-0.21923414206372405,0.17714118678748902,-0.1657410114001754
1742916966.0363953,1.003206,0.00366,0.020984,4.3925,0.5075000000000001,0.6825000000000001,-0.21923414206372405,0.17714118678748902,-0.1657410114001754
1742916966.0412505,1.003938,0.00244,0.02257,-0.10500000000000001,0.4025,0.525,-0.21923414206372405,0.17714118678748902,-0.1657410114001754
1742916966.0461197,1.003572,0.004148,0.022203999999999998,-0.052500000000000005,0.4025,0.5075000000000001,-0.21923414206372405,0.17714118678748902,-0.1657410114001754
1742916966.0517263,1.004304,0.004514,0.022935999999999998,-0.035,0.385,0.5775,-0.21923414206372405,0.17714118678748902,-0.1657410114001754
1742916966.055855,1.004304,0.004514,0.020374,-0.07,0.385,0.5775,-0.21923414206372405,0.17714118678748902,-0.1657410114001754
1742916966.0607197,1.002718,0.003172,0.021838,-0.08750000000000001,0.35000000000000003,0.49000000000000005,-0.21923414206372405,0.17714118678748902,-0.1657410114001754
1742916966.065588,1.005646,0.003538,0.023667999999999998,0.0,0.3325,0.5425000000000001,-0.21923414206372405,0.17714118678748902,-0.1657410114001754
1742916966.0704603,1.006012,0.0050019999999999995,0.021228,-0.0175,0.29750000000000004,0.5075000000000001,-0.21923414206372405,0.17714118678748902,-0.1657410114001754
1742916966.0753243,1.003206,0.00488,0.022814,-0.035,0.3325,0.47250000000000003,-0.22332651271558024,0.1841566793335282,-0.1642794504530839
1742916966.0801919,1.003938,0.0050019999999999995,0.023424,-0.035,0.2625,0.47250000000000003,-0.22332651271558024,0.1841566793335282,-0.1642794504530839
1742916966.0850658,1.006256,0.004758,0.02257,0.0175,0.5075000000000001,0.7000000000000001,-0.22332651271558024,0.1841566793335282,-0.1642794504530839
1742916966.0899305,1.005036,0.004148,0.02318,-0.0175,0.385,0.6125,-0.22332651271558024,0.1841566793335282,-0.1642794504530839
1742916966.0947986,1.005402,0.0034159999999999998,0.021471999999999998,-0.07,0.42000000000000004,0.6300000000000001,-0.22332651271558024,0.1841566793335282,-0.1642794504530839
1742916966.099675,1.001376,0.001952,0.022448,-0.035,0.36750000000000005,0.56,-0.22332651271558024,0.1841566793335282,-0.1642794504530839
1742916966.1052508,1.003328,0.0050019999999999995,0.022692,-0.14,0.4025,0.525,-0.22332651271558024,0.1841566793335282,-0.1642794504530839
1742916966.1094093,1.004914,0.005612,0.020618,-0.10500000000000001,0.45500000000000007,0.5425000000000001,-0.22332651271558024,0.1841566793335282,-0.1642794504530839
1742916966.1142738,1.005646,0.0037819999999999998,0.021228,-0.035,0.35000000000000003,0.45500000000000007,-0.22332651271558024,0.1841566793335282,-0.1642794504530839
1742916966.119143,1.004548,0.0046359999999999995,0.02135,-0.07,0.42000000000000004,0.5425000000000001,-0.22332651271558024,0.1841566793335282,-0.1642794504530839
1742916966.1240122,1.003938,0.004514,0.020739999999999998,-0.07,0.42000000000000004,0.56,-0.22332651271558024,0.1853259280912014,-0.160479391990646
1742916966.1288776,1.003694,0.002928,0.022935999999999998,-0.08750000000000001,0.31500000000000006,0.5075000000000001,-0.22332651271558024,0.1853259280912014,-0.160479391990646
1742916966.1337452,1.00406,0.00488,0.024522,-0.10500000000000001,0.525,0.6825000000000001,-0.22332651271558024,0.1853259280912014,-0.160479391990646
1742916966.1386101,1.00406,0.003172,0.022692,-0.15750000000000003,0.49000000000000005,0.5425000000000001,-0.22332651271558024,0.1853259280912014,-0.160479391990646
1742916966.1434762,1.00284,0.003294,0.021716,-0.08750000000000001,0.42000000000000004,0.525,-0.22332651271558024,0.1853259280912014,-0.160479391990646
1742916966.1483598,1.004304,0.0042699999999999995,0.020739999999999998,-0.08750000000000001,0.35000000000000003,0.5075000000000001,-0.22332651271558024,0.1853259280912014,-0.160479391990646
1742916966.153225,1.003816,0.004148,0.020496,-0.08750000000000001,0.43750000000000006,0.56,-0.22332651271558024,0.1853259280912014,-0.160479391990646
1742916966.1647677,1.004182,0.005246,0.023667999999999998,-0.15750000000000003,0.385,0.6475000000000001,-0.22332651271558024,0.1853259280912014,-0.160479391990646
1742916966.1676817,1.005646,0.00183,0.022082,-0.07,0.36750000000000005,0.525,-0.22332651271558024,0.1853259280912014,-0.160479391990646
1742916966.1725466,1.005402,0.002806,0.024034,-0.15750000000000003,0.2625,0.31500000000000006,-0.2133878982753581,0.18123355743934522,-0.1625255773165741
1742916966.1774125,1.00406,0.003172,0.023058,-0.21000000000000002,0.5075000000000001,0.665,-0.2133878982753581,0.18123355743934522,-0.1625255773165741
1742916966.1822817,1.003694,0.003538,0.022448,-0.12250000000000001,0.36750000000000005,0.5425000000000001,-0.2133878982753581,0.18123355743934522,-0.1625255773165741
1742916966.1871479,1.004792,0.004026,0.021471999999999998,-0.21000000000000002,0.385,0.525,-0.2133878982753581,0.18123355743934522,-0.1625255773165741
1742916966.1920142,1.005402,0.00366,0.022692,-0.14,0.385,0.47250000000000003,-0.2133878982753581,0.18123355743934522,-0.1625255773165741
1742916966.196883,1.00467,0.002928,0.021838,-0.12250000000000001,0.3325,0.525,-0.2133878982753581,0.18123355743934522,-0.1625255773165741
1742916966.2017484,1.00467,0.00488,0.02318,-0.08750000000000001,0.385,0.525,-0.2133878982753581,0.18123355743934522,-0.1625255773165741
1742916966.2066147,1.00406,0.0037819999999999998,0.021471999999999998,-0.10500000000000001,0.35000000000000003,0.525,-0.2133878982753581,0.18123355743934522,-0.1625255773165741
1742916966.2114823,1.004182,0.00122,0.022203999999999998,-0.07,0.35000000000000003,0.47250000000000003,-0.2133878982753581,0.18123355743934522,-0.1625255773165741
1742916966.2193727,1.00406,0.004758,0.023546,-0.052500000000000005,0.28,0.49000000000000005,-0.21397252265419467,0.188833674364221,-0.1622332651271558
1742916966.2225056,1.005402,0.004148,0.024399999999999998,-0.052500000000000005,0.28,0.49000000000000005,-0.21397252265419467,0.188833674364221,-0.1622332651271558
1742916966.2273493,1.004792,0.004758,0.022935999999999998,0.0175,0.43750000000000006,0.6125,-0.21397252265419467,0.188833674364221,-0.1622332651271558
1742916966.2321763,1.002352,0.00366,0.021228,-0.07,0.2625,0.5775,-0.21397252265419467,0.188833674364221,-0.1622332651271558
1742916966.23704,1.005158,0.004514,0.021716,-0.07,0.3325,0.5775,-0.21397252265419467,0.188833674364221,-0.1622332651271558
1742916966.2419314,1.006134,0.005612,0.02013,-0.08750000000000001,0.31500000000000006,0.5075000000000001,-0.21397252265419467,0.188833674364221,-0.1622332651271558
1742916966.2467892,1.004914,0.0046359999999999995,0.021106,-0.10500000000000001,0.36750000000000005,0.49000000000000005,-0.21397252265419467,0.188833674364221,-0.1622332651271558
1742916966.251651,1.005524,0.0050019999999999995,0.023912,-0.1925,0.49000000000000005,0.5950000000000001,-0.21397252265419467,0.188833674364221,-0.1622332651271558
1742916966.2565184,1.00528,0.0034159999999999998,0.021471999999999998,-0.1925,0.42000000000000004,0.56,-0.21397252265419467,0.188833674364221,-0.1622332651271558
1742916966.261395,1.004792,0.006954,0.022935999999999998,-0.15750000000000003,0.45500000000000007,0.5950000000000001,-0.21397252265419467,0.188833674364221,-0.1622332651271558
1742916966.266257,1.004426,0.00488,0.020862,-0.08750000000000001,0.29750000000000004,0.43750000000000006,-0.22215726395790705,0.18123355743934522,-0.1645717626425022
1742916966.2732604,1.003572,0.005246,0.023302,-0.1925,0.525,0.7175,-0.22215726395790705,0.18123355743934522,-0.1645717626425022
1742916966.2761226,1.00589,0.0034159999999999998,0.023912,-0.052500000000000005,0.5425000000000001,0.5950000000000001,-0.22215726395790705,0.18123355743934522,-0.1645717626425022
1742916966.2809904,1.00284,0.0037819999999999998,0.020496,-0.0175,0.29750000000000004,0.47250000000000003,-0.22215726395790705,0.18123355743934522,-0.1645717626425022
1742916966.2859871,1.004304,0.00366,0.022448,0.0175,0.4025,0.5950000000000001,-0.22215726395790705,0.18123355743934522,-0.1645717626425022
1742916966.2909117,1.003694,0.0034159999999999998,0.023546,-0.08750000000000001,0.31500000000000006,0.43750000000000006,-0.22215726395790705,0.18123355743934522,-0.1645717626425022
1742916966.2956479,1.00467,0.004026,0.021716,-0.14,0.29750000000000004,0.525,-0.22215726395790705,0.18123355743934522,-0.1645717626425022
1742916966.3005083,1.003206,0.003904,0.02135,-0.035,0.36750000000000005,0.56,-0.22215726395790705,0.18123355743934522,-0.1645717626425022
1742916966.3054926,1.004792,0.004758,0.02318,0.035,0.42000000000000004,0.5075000000000001,-0.22215726395790705,0.18123355743934522,-0.1645717626425022
1742916966.3102832,1.003694,0.006344,0.023058,-0.0175,0.42000000000000004,0.43750000000000006,-0.21689564454837768,0.17889505992399882,-0.15872551885413622
1742916966.315135,1.003938,0.003294,0.021106,-0.07,0.22750000000000004,0.3325,-0.21689564454837768,0.17889505992399882,-0.15872551885413622
1742916966.3200023,1.003206,0.0030499999999999998,0.022448,-0.14,0.49000000000000005,0.7875000000000001,-0.21689564454837768,0.17889505992399882,-0.15872551885413622
1742916966.3263586,1.005036,0.0042699999999999995,0.022326,-0.08750000000000001,0.42000000000000004,0.56,-0.21689564454837768,0.17889505992399882,-0.15872551885413622
1742916966.3297403,1.004792,0.0037819999999999998,0.023058,-0.08750000000000001,0.42000000000000004,0.56,-0.21689564454837768,0.17889505992399882,-0.15872551885413622
1742916966.3346045,1.002962,0.001098,0.021594,-0.035,0.28,0.42000000000000004,-0.21689564454837768,0.17889505992399882,-0.15872551885413622
1742916966.3394697,1.00528,0.0050019999999999995,0.022814,-0.07,0.3325,0.525,-0.21689564454837768,0.17889505992399882,-0.15872551885413622
1742916966.3443403,1.005036,0.003904,0.020374,-0.14,0.42000000000000004,0.5425000000000001,-0.21689564454837768,0.17889505992399882,-0.15872551885413622
1742916966.3492112,1.004426,0.0030499999999999998,0.019886,-0.15750000000000003,0.43750000000000006,0.5775,-0.21689564454837768,0.17889505992399882,-0.15872551885413622
1742916966.3540783,1.00528,0.004514,0.023667999999999998,-0.07,0.4025,0.5950000000000001,-0.21689564454837768,0.17889505992399882,-0.15872551885413622
1742916966.3589458,1.002596,0.003294,0.021716,-0.07,0.24500000000000002,0.3325,-0.21923414206372405,0.17538731365097926,-0.15609470914937154
1742916966.3638194,1.00284,0.0026839999999999998,0.023302,-0.07,0.45500000000000007,0.6125,-0.21923414206372405,0.17538731365097926,-0.15609470914937154
1742916966.3686857,1.004548,0.003172,0.021594,-0.14,0.45500000000000007,0.49000000000000005,-0.21923414206372405,0.17538731365097926,-0.15609470914937154
1742916966.3735542,1.002718,0.0057339999999999995,0.023424,-0.1925,0.385,0.42000000000000004,-0.21923414206372405,0.17538731365097926,-0.15609470914937154
1742916966.3794472,1.004304,0.0050019999999999995,0.021471999999999998,-0.21000000000000002,0.29750000000000004,0.5075000000000001,-0.21923414206372405,0.17538731365097926,-0.15609470914937154
1742916966.3832908,1.00528,0.005124,0.022326,-0.14,0.28,0.5425000000000001,-0.21923414206372405,0.17538731365097926,-0.15609470914937154
1742916966.3881657,1.004548,0.0042699999999999995,0.02013,-0.17500000000000002,0.35000000000000003,0.56,-0.21923414206372405,0.17538731365097926,-0.15609470914937154
1742916966.393027,1.00467,0.00366,0.019764,-0.15750000000000003,0.45500000000000007,0.5425000000000001,-0.21923414206372405,0.17538731365097926,-0.15609470914937154
1742916966.3978944,1.004182,0.0050019999999999995,0.022814,-0.15750000000000003,0.47250000000000003,0.5075000000000001,-0.21923414206372405,0.17538731365097926,-0.15609470914937154
1742916966.402763,1.003572,0.002196,0.02196,-0.14,0.4025,0.5075000000000001,-0.21923414206372405,0.17538731365097926,-0.15609470914937154
1742916966.4076347,1.007232,0.004026,0.020862,-0.1925,0.21000000000000002,0.31500000000000006,-0.21572639579070446,0.18357205495469162,-0.15901783104355452
1742916966.4125092,1.003572,0.00366,0.020618,-0.07,0.42000000000000004,0.665,-0.21572639579070446,0.18357205495469162,-0.15901783104355452
1742916966.417376,1.004914,0.005246,0.024034,-0.10500000000000001,0.43750000000000006,0.665,-0.21572639579070446,0.18357205495469162,-0.15901783104355452
1742916966.4222426,1.002108,0.003172,0.021471999999999998,-0.12250000000000001,0.31500000000000006,0.6125,-0.21572639579070446,0.18357205495469162,-0.15901783104355452
1742916966.4271114,1.004304,0.0026839999999999998,0.019886,-0.08750000000000001,0.24500000000000002,0.5775,-0.21572639579070446,0.18357205495469162,-0.15901783104355452
1742916966.4327073,1.004426,0.005612,0.024399999999999998,-0.08750000000000001,0.29750000000000004,0.49000000000000005,-0.21572639579070446,0.18357205495469162,-0.15901783104355452
1742916966.4368482,1.00528,0.0034159999999999998,0.02318,-0.17500000000000002,0.35000000000000003,0.5075000000000001,-0.21572639579070446,0.18357205495469162,-0.15901783104355452
1742916966.441715,1.004914,0.004392,0.021106,-0.12250000000000001,0.3325,0.47250000000000003,-0.21572639579070446,0.18357205495469162,-0.15901783104355452
1742916966.4465444,1.005768,0.004026,0.021471999999999998,-0.035,0.36750000000000005,0.5775,-0.21572639579070446,0.18357205495469162,-0.15901783104355452
1742916966.4514124,1.003328,0.0050019999999999995,0.021716,-0.052500000000000005,0.36750000000000005,0.5775,-0.22040339082139726,0.1841566793335282,-0.1584332066647179
1742916966.4562826,1.003816,0.004392,0.021716,0.07,0.22750000000000004,0.385,-0.22040339082139726,0.1841566793335282,-0.1584332066647179
1742916966.4611475,1.004426,0.0046359999999999995,0.023667999999999998,0.052500000000000005,0.35000000000000003,0.7175,-0.22040339082139726,0.1841566793335282,-0.1584332066647179
1742916966.4660182,1.002108,0.0013419999999999999,0.020984,0.0175,0.43750000000000006,0.6300000000000001,-0.22040339082139726,0.1841566793335282,-0.1584332066647179
1742916966.4708853,1.003572,0.003294,0.02013,0.052500000000000005,0.31500000000000006,0.49000000000000005,-0.22040339082139726,0.1841566793335282,-0.1584332066647179
1742916966.475754,1.004548,0.004392,0.020862,0.035,0.3325,0.45500000000000007,-0.22040339082139726,0.1841566793335282,-0.1584332066647179
1742916966.4806244,1.004304,0.00183,0.021106,0.035,0.29750000000000004,0.49000000000000005,-0.22040339082139726,0.1841566793335282,-0.1584332066647179
1742916966.48621,1.004914,0.005246,0.022935999999999998,0.052500000000000005,0.29750000000000004,0.6125,-0.22040339082139726,0.1841566793335282,-0.1584332066647179
1742916966.4903638,1.004914,0.005246,0.022082,-0.0175,0.42000000000000004,0.6300000000000001,-0.22040339082139726,0.1841566793335282,-0.1584332066647179
1742916966.4952295,1.003816,0.0026839999999999998,0.020984,0.0175,0.35000000000000003,0.6125,-0.22040339082139726,0.1841566793335282,-0.1584332066647179
1742916966.5000997,1.001254,0.002928,0.022326,0.0175,0.29750000000000004,0.385,-0.21748026892721425,0.1824028061970184,-0.1601870798012277
1742916966.5049675,1.003938,0.004514,0.022935999999999998,-0.0175,0.31500000000000006,0.6125,-0.21748026892721425,0.1824028061970184,-0.1601870798012277
1742916966.5098357,1.00284,0.003538,0.019275999999999998,0.035,0.525,0.6300000000000001,-0.21748026892721425,0.1824028061970184,-0.1601870798012277
1742916966.514702,1.00528,0.0030499999999999998,0.02379,0.0175,0.35000000000000003,0.5075000000000001,-0.21748026892721425,0.1824028061970184,-0.1601870798012277
1742916966.5195723,1.003816,0.0042699999999999995,0.02196,-0.052500000000000005,0.29750000000000004,0.5425000000000001,-0.21748026892721425,0.1824028061970184,-0.1601870798012277
1742916966.5244403,1.00345,0.0023179999999999997,0.02135,-0.0175,0.28,0.5775,-0.21748026892721425,0.1824028061970184,-0.1601870798012277
1742916966.5293083,1.006134,0.003172,0.02257,0.0,0.2625,0.525,-0.21748026892721425,0.1824028061970184,-0.1601870798012277
1742916966.5341787,1.004548,0.004758,0.019154,0.0,0.31500000000000006,0.47250000000000003,-0.21748026892721425,0.1824028061970184,-0.1601870798012277
1742916966.5397527,1.005036,0.002562,0.021838,0.035,0.29750000000000004,0.42000000000000004,-0.21748026892721425,0.1824028061970184,-0.1601870798012277
1742916966.5439177,1.005158,0.0060999999999999995,0.02196,-0.035,0.4025,0.49000000000000005,-0.21748026892721425,0.1824028061970184,-0.1601870798012277
1742916966.548793,1.006256,0.003172,0.020739999999999998,-0.052500000000000005,0.2625,0.4025,-0.21280327389652148,0.17304881613563286,-0.1636948260742473
1742916966.55366,1.005158,0.006222,0.022326,0.0175,0.28,0.6300000000000001,-0.21280327389652148,0.17304881613563286,-0.1636948260742473
1742916966.5585203,1.004792,0.004148,0.02379,-0.035,0.47250000000000003,0.6825000000000001,-0.21280327389652148,0.17304881613563286,-0.1636948260742473
1742916966.5633879,1.001742,0.003538,0.02196,-0.08750000000000001,0.385,0.6125,-0.21280327389652148,0.17304881613563286,-0.1636948260742473
1742916966.568258,1.00467,0.0023179999999999997,0.023058,-0.10500000000000001,0.4025,0.5775,-0.21280327389652148,0.17304881613563286,-0.1636948260742473
1742916966.573126,1.003572,0.003538,0.02135,-0.08750000000000001,0.35000000000000003,0.5075000000000001,-0.21280327389652148,0.17304881613563286,-0.1636948260742473
1742916966.577993,1.003328,0.003904,0.02013,-0.08750000000000001,0.3325,0.49000000000000005,-0.21280327389652148,0.17304881613563286,-0.1636948260742473
1742916966.582861,1.003816,0.002928,0.02257,-0.08750000000000001,0.3325,0.49000000000000005,-0.21280327389652148,0.17304881613563286,-0.1636948260742473
1742916966.5877311,1.00406,0.003294,0.020862,-0.08750000000000001,0.385,0.6125,-0.21280327389652148,0.17304881613563286,-0.1636948260742473
1742916966.5933056,1.004792,0.0030499999999999998,0.022448,0.0175,0.43750000000000006,0.525,-0.22624963460976322,0.17889505992399882,-0.15317158725518853
1742916966.5974693,1.003084,0.0030499999999999998,0.022448,0.07,0.2625,0.47250000000000003,-0.22624963460976322,0.17889505992399882,-0.15317158725518853
1742916966.602337,1.00406,0.0008539999999999999,0.021471999999999998,-0.10500000000000001,0.47250000000000003,0.7350000000000001,-0.22624963460976322,0.17889505992399882,-0.15317158725518853
1742916966.6072035,1.003938,0.002806,0.022448,-0.07,0.45500000000000007,0.525,-0.22624963460976322,0.17889505992399882,-0.15317158725518853
1742916966.6120722,1.003084,0.003294,0.021228,-0.12250000000000001,0.43750000000000006,0.525,-0.22624963460976322,0.17889505992399882,-0.15317158725518853
1742916966.61694,1.002352,0.0017079999999999999,0.021471999999999998,-0.17500000000000002,0.35000000000000003,0.5075000000000001,-0.22624963460976322,0.17889505992399882,-0.15317158725518853
1742916966.6218078,1.004792,0.0060999999999999995,0.02257,-0.052500000000000005,0.29750000000000004,0.49000000000000005,-0.22624963460976322,0.17889505992399882,-0.15317158725518853
1742916966.6266744,1.004304,0.004148,0.02196,-0.08750000000000001,0.3325,0.49000000000000005,-0.22624963460976322,0.17889505992399882,-0.15317158725518853
1742916966.6315424,1.003694,0.0023179999999999997,0.020618,-0.14,0.42000000000000004,0.5425000000000001,-0.22624963460976322,0.17889505992399882,-0.15317158725518853
1742916966.636411,1.006744,0.006588,0.024399999999999998,-0.14,0.42000000000000004,0.525,-0.22624963460976322,0.17889505992399882,-0.15317158725518853
1742916966.6412811,1.006134,0.005612,0.021228,-0.14,0.3325,0.5075000000000001,-0.21221864951768488,0.18357205495469162,-0.15901783104355452
1742916966.6468549,1.00345,0.001952,0.022814,-0.17500000000000002,0.31500000000000006,0.49000000000000005,-0.21221864951768488,0.18357205495469162,-0.15901783104355452
1742916966.651013,1.003572,0.003294,0.02196,-0.052500000000000005,0.5775,0.6825000000000001,-0.21221864951768488,0.18357205495469162,-0.15901783104355452
1742916966.6558826,1.00467,0.005246,0.022203999999999998,-0.0175,0.42000000000000004,0.56,-0.21221864951768488,0.18357205495469162,-0.15901783104355452
1742916966.6607497,1.003572,0.0034159999999999998,0.022326,-0.12250000000000001,0.42000000000000004,0.5775,-0.21221864951768488,0.18357205495469162,-0.15901783104355452
1742916966.665616,1.00345,0.0030499999999999998,0.021228,-0.10500000000000001,0.36750000000000005,0.56,-0.21221864951768488,0.18357205495469162,-0.15901783104355452
