Timestamp,Accel X,Accel Y,Accel Z,Gyro X,Gyro Y,Gyro Z,Magneto X,Magneto Y,Magneto Z
1747152208.827928,0.99796,0.000122,0.12505,-0.12250000000000001,0.1925,0.5425000000000001,-0.4600993861444022,-0.0008769365682548962,-0.18897983045893013
1747152208.8327284,0.998082,0.0017079999999999999,0.124806,-0.07,0.1925,0.56,-0.4600993861444022,-0.0008769365682548962,-0.18897983045893013
1747152208.8375928,0.998082,0.001952,0.12395199999999999,-0.08750000000000001,0.29750000000000004,0.5950000000000001,-0.4600993861444022,-0.0008769365682548962,-0.18897983045893013
1747152208.8424492,0.998692,-0.0008539999999999999,0.124684,-0.15750000000000003,0.28,0.5775,-0.4600993861444022,-0.0008769365682548962,-0.18897983045893013
1747152208.8473144,0.995642,-0.0008539999999999999,0.12163399999999999,-0.17500000000000002,0.29750000000000004,0.5775,-0.4600993861444022,-0.0008769365682548962,-0.18897983045893013
1747152208.8521893,0.996374,0.001464,0.123586,-0.15750000000000003,0.29750000000000004,0.5775,-0.4600993861444022,-0.0008769365682548962,-0.18897983045893013
1747152208.8570604,0.9971059999999999,0.001952,0.124074,-0.14,0.28,0.6300000000000001,-0.4600993861444022,-0.0008769365682548962,-0.18897983045893013
1747152208.861982,0.996252,0.001098,0.124318,-0.12250000000000001,0.2625,0.6475000000000001,-0.4600993861444022,-0.0008769365682548962,-0.18897983045893013
1747152208.866829,0.99796,-0.000732,0.124684,-0.08750000000000001,0.28,0.6475000000000001,-0.4600993861444022,-0.0008769365682548962,-0.18897983045893013
1747152208.8717027,0.997228,0.0008539999999999999,0.125416,-0.10500000000000001,0.17500000000000002,0.5775,-0.4600993861444022,-0.0008769365682548962,-0.18897983045893013
1747152208.876571,0.997228,0.000488,0.126392,0.052500000000000005,0.14,0.56,-0.4621455714703303,-0.0014615609470914938,-0.19277988892136802
1747152208.8814423,0.9964959999999999,0.000488,0.12322,0.08750000000000001,0.14,0.6125,-0.4621455714703303,-0.0014615609470914938,-0.19277988892136802
1747152208.8863149,0.997472,0.0013419999999999999,0.12285399999999999,0.07,0.14,0.6475000000000001,-0.4621455714703303,-0.0014615609470914938,-0.19277988892136802
1747152208.8911872,0.99674,0.001098,0.125172,0.0,0.14,0.6300000000000001,-0.4621455714703303,-0.0014615609470914938,-0.19277988892136802
1747152208.8960578,0.996618,0.001098,0.122732,-4.48,0.15750000000000003,0.5425000000000001,-0.4621455714703303,-0.0014615609470914938,-0.19277988892136802
1747152208.9009864,0.99796,0.000122,0.123586,-0.0175,0.21000000000000002,0.5950000000000001,-0.4621455714703303,-0.0014615609470914938,-0.19277988892136802
1747152208.905812,0.9989359999999999,0.000122,0.12566,-0.08750000000000001,0.1925,0.56,-0.4621455714703303,-0.0014615609470914938,-0.19277988892136802
1747152208.910681,0.998814,0.0008539999999999999,0.125294,-0.21000000000000002,0.29750000000000004,0.6300000000000001,-0.4621455714703303,-0.0014615609470914938,-0.19277988892136802
1747152208.9155586,0.9983259999999999,0.001952,0.125416,-0.22750000000000004,0.31500000000000006,0.6125,-0.4621455714703303,-0.0014615609470914938,-0.19277988892136802
1747152208.9204276,0.9971059999999999,-0.000122,0.125538,-0.22750000000000004,0.28,0.5425000000000001,-0.46185325928091203,0.0014615609470914938,-0.18839520608009355
1747152208.9252977,0.99857,-0.000366,0.125172,-0.17500000000000002,0.29750000000000004,0.6125,-0.46185325928091203,0.0014615609470914938,-0.18839520608009355
1747152208.9301693,0.998204,0.001586,0.125538,-0.17500000000000002,0.28,0.665,-0.46185325928091203,0.0014615609470914938,-0.18839520608009355
1747152208.9350457,0.998448,0.0,0.125294,-0.17500000000000002,0.28,0.6300000000000001,-0.46185325928091203,0.0014615609470914938,-0.18839520608009355
1747152208.939927,0.99613,-0.000976,0.12456199999999999,-0.15750000000000003,0.24500000000000002,0.5950000000000001,-0.46185325928091203,0.0014615609470914938,-0.18839520608009355
1747152208.944786,0.99796,0.0,0.12444,-0.08750000000000001,0.1925,0.5775,-0.46185325928091203,0.0014615609470914938,-0.18839520608009355
1747152208.9496567,0.997838,0.000244,0.122488,-0.08750000000000001,0.21000000000000002,0.665,-0.46185325928091203,0.0014615609470914938,-0.18839520608009355
1747152208.954533,0.998814,-0.000366,0.123708,-0.08750000000000001,0.17500000000000002,0.5775,-0.46185325928091203,0.0014615609470914938,-0.18839520608009355
1747152208.9594028,0.997472,0.001952,0.12322,0.0175,0.22750000000000004,0.6300000000000001,-0.46185325928091203,0.0014615609470914938,-0.18839520608009355
1747152208.964271,0.9977159999999999,-0.000488,0.12322,0.0175,0.1925,0.6300000000000001,-0.46185325928091203,0.0014615609470914938,-0.18839520608009355
1747152208.9691432,0.997472,0.000366,0.12224399999999999,0.052500000000000005,0.10500000000000001,0.5775,-0.4644840689856767,0.004969307220111079,-0.1870798012277112
1747152208.9740207,0.997472,0.000976,0.12285399999999999,-0.07,0.10500000000000001,0.6125,-0.4644840689856767,0.004969307220111079,-0.1870798012277112
1747152208.9789243,0.9977159999999999,-0.000732,0.125172,-0.07,0.1925,0.665,-0.4644840689856767,0.004969307220111079,-0.1870798012277112
1747152208.9838035,0.9995459999999999,-0.000488,0.124196,-0.0175,0.15750000000000003,0.5950000000000001,-0.4644840689856767,0.004969307220111079,-0.1870798012277112
1747152208.9886732,0.998814,0.00061,0.12383,-0.17500000000000002,0.22750000000000004,0.56,-0.4644840689856767,0.004969307220111079,-0.1870798012277112
1747152208.99354,0.996618,0.001952,0.125294,-0.035,0.1925,0.5775,-0.4644840689856767,0.004969307220111079,-0.1870798012277112
1747152208.9984138,0.99674,-0.000732,0.123464,-0.035,0.21000000000000002,0.5775,-0.4644840689856767,0.004969307220111079,-0.1870798012277112
1747152209.0032878,0.996252,0.00122,0.12261,-0.12250000000000001,0.22750000000000004,0.5950000000000001,-0.4644840689856767,0.004969307220111079,-0.1870798012277112
1747152209.0081642,0.99735,-0.000976,0.124074,-0.08750000000000001,0.12250000000000001,0.5775,-0.4644840689856767,0.004969307220111079,-0.1870798012277112
1747152209.0130386,0.996984,0.00244,0.12456199999999999,0.052500000000000005,0.12250000000000001,0.5950000000000001,-0.47003800058462436,-0.00029231218941829873,-0.185910552470038
1747152209.0179126,0.99857,0.001098,0.124928,-0.0175,0.15750000000000003,0.6300000000000001,-0.47003800058462436,-0.00029231218941829873,-0.185910552470038
1747152209.0228062,0.9977159999999999,-0.000732,0.124806,0.0,0.1925,0.6125,-0.47003800058462436,-0.00029231218941829873,-0.185910552470038
1747152209.0342772,0.9977159999999999,-0.000732,0.123586,-0.08750000000000001,0.21000000000000002,0.6475000000000001,-0.47003800058462436,-0.00029231218941829873,-0.185910552470038
1747152209.0373764,0.9958859999999999,-0.000366,0.12505,-0.10500000000000001,0.24500000000000002,0.5425000000000001,-0.47003800058462436,-0.00029231218941829873,-0.185910552470038
1747152209.0422127,0.998204,0.00061,0.123098,-0.035,0.14,0.5950000000000001,-0.47003800058462436,-0.00029231218941829873,-0.185910552470038
1747152209.0471401,0.99796,0.00183,0.123464,-0.07,0.1925,0.6300000000000001,-0.47003800058462436,-0.00029231218941829873,-0.185910552470038
1747152209.0519636,0.997228,0.00122,0.123586,-0.052500000000000005,0.17500000000000002,0.6125,-0.47003800058462436,-0.00029231218941829873,-0.185910552470038
1747152209.056829,0.997472,0.001586,0.124806,-0.12250000000000001,0.22750000000000004,0.5775,-0.47003800058462436,-0.00029231218941829873,-0.185910552470038
1747152209.0617034,0.9958859999999999,-0.001098,0.12627,-0.07,0.14,0.56,-0.4671148786904414,-0.0070154925460391695,-0.18211049400760013
1747152209.0665722,0.9971059999999999,-0.00183,0.124806,0.0,0.14,0.6300000000000001,-0.4671148786904414,-0.0070154925460391695,-0.18211049400760013
1747152209.0714514,0.996862,0.001586,0.124196,-0.052500000000000005,0.21000000000000002,0.5775,-0.4671148786904414,-0.0070154925460391695,-0.18211049400760013
1747152209.07632,0.997838,0.0013419999999999999,0.124928,-0.10500000000000001,0.28,0.5950000000000001,-0.4671148786904414,-0.0070154925460391695,-0.18211049400760013
1747152209.08119,0.998082,0.000976,0.122976,-0.12250000000000001,0.24500000000000002,0.5425000000000001,-0.4671148786904414,-0.0070154925460391695,-0.18211049400760013
1747152209.0890152,0.996862,-0.000488,0.124684,-0.08750000000000001,0.24500000000000002,0.6125,-0.4671148786904414,-0.0070154925460391695,-0.18211049400760013
1747152209.0920305,0.99613,0.001464,0.122976,-0.08750000000000001,0.24500000000000002,0.6125,-0.4671148786904414,-0.0070154925460391695,-0.18211049400760013
1747152209.0968964,0.998082,0.000732,0.123708,-0.0175,0.1925,0.5425000000000001,-0.4671148786904414,-0.0070154925460391695,-0.18211049400760013
1747152209.1017704,0.998448,0.001098,0.124684,0.052500000000000005,0.21000000000000002,0.5425000000000001,-0.4671148786904414,-0.0070154925460391695,-0.18211049400760013
1747152209.1066382,0.99735,0.000122,0.12456199999999999,0.035,0.12250000000000001,0.56,-0.4633148202280035,0.006430868167202572,-0.1921952645425314
1747152209.111507,0.99796,-0.000122,0.12224399999999999,0.0175,0.17500000000000002,0.5775,-0.4633148202280035,0.006430868167202572,-0.1921952645425314
1747152209.1163783,0.996984,0.00244,0.125538,-0.0175,0.2625,0.6300000000000001,-0.4633148202280035,0.006430868167202572,-0.1921952645425314
1747152209.121251,0.9971059999999999,0.000244,0.123098,0.035,0.21000000000000002,0.56,-0.4633148202280035,0.006430868167202572,-0.1921952645425314
1747152209.1261225,0.997228,0.000976,0.12383,0.035,0.21000000000000002,0.56,-0.4633148202280035,0.006430868167202572,-0.1921952645425314
1747152209.1309936,0.99918,0.0,0.12395199999999999,0.0175,0.14,0.6125,-0.4633148202280035,0.006430868167202572,-0.1921952645425314
1747152209.1358633,0.9983259999999999,-0.000488,0.124074,-0.035,0.14,0.6300000000000001,-0.4633148202280035,0.006430868167202572,-0.1921952645425314
1747152209.143025,0.99613,0.001464,0.124806,0.0175,0.12250000000000001,0.6300000000000001,-0.4633148202280035,0.006430868167202572,-0.1921952645425314
1747152209.1458654,0.997472,0.001952,0.12383,-0.0175,0.1925,0.6475000000000001,-0.4633148202280035,0.006430868167202572,-0.1921952645425314
1747152209.1507323,0.998204,0.0008539999999999999,0.12566,-0.0175,0.1925,0.5425000000000001,-0.4633148202280035,0.006430868167202572,-0.1921952645425314
1747152209.1556103,0.9989359999999999,-0.000488,0.123464,-0.12250000000000001,0.24500000000000002,0.56,-0.45834551300789245,0.0005846243788365975,-0.1826951183864367
1747152209.1604784,0.9977159999999999,0.0,0.12444,-0.08750000000000001,0.24500000000000002,0.6125,-0.45834551300789245,0.0005846243788365975,-0.1826951183864367
1747152209.1653495,0.997472,-0.000976,0.124196,-0.2625,0.29750000000000004,0.665,-0.45834551300789245,0.0005846243788365975,-0.1826951183864367
1747152209.170222,0.996984,0.001952,0.123342,-0.17500000000000002,0.29750000000000004,0.6125,-0.45834551300789245,0.0005846243788365975,-0.1826951183864367
1747152209.175093,0.996984,0.001098,0.124806,-0.15750000000000003,0.28,0.5775,-0.45834551300789245,0.0005846243788365975,-0.1826951183864367
1747152209.1799664,0.9989359999999999,0.000366,0.125416,-0.22750000000000004,0.3325,0.5950000000000001,-0.45834551300789245,0.0005846243788365975,-0.1826951183864367
1747152209.184835,0.996374,0.000488,0.124196,-0.2625,0.3325,0.6125,-0.45834551300789245,0.0005846243788365975,-0.1826951183864367
1747152209.189706,0.996008,0.002196,0.124196,-0.24500000000000002,0.385,0.6125,-0.45834551300789245,0.0005846243788365975,-0.1826951183864367
1747152209.196108,0.997228,0.000366,0.123586,-0.14,0.28,0.665,-0.45834551300789245,0.0005846243788365975,-0.1826951183864367
1747152209.1994476,0.99613,0.000366,0.123586,-0.14,0.28,0.665,-0.45834551300789245,0.0005846243788365975,-0.1826951183864367
1747152209.204316,0.995154,0.0017079999999999999,0.124318,0.0175,0.15750000000000003,0.6300000000000001,-0.4595147617655656,-0.006138555977784273,-0.18664133294358376
1747152209.2091885,0.99796,0.000122,0.123586,-0.052500000000000005,0.22750000000000004,0.6300000000000001,-0.4595147617655656,-0.006138555977784273,-0.18664133294358376
1747152209.2140603,0.995154,0.000366,0.124196,-0.08750000000000001,0.2625,0.6300000000000001,-0.4595147617655656,-0.006138555977784273,-0.18664133294358376
1747152209.2189338,0.998082,0.000122,0.124074,-0.14,0.22750000000000004,0.6125,-0.4595147617655656,-0.006138555977784273,-0.18664133294358376
1747152209.223805,0.997228,0.000244,0.123342,-0.12250000000000001,0.28,0.6125,-0.4595147617655656,-0.006138555977784273,-0.18664133294358376
1747152209.2286737,0.9977159999999999,-0.02989,0.123342,-0.10500000000000001,0.28,0.5950000000000001,-0.4595147617655656,-0.006138555977784273,-0.18664133294358376
1747152209.233545,0.99857,0.0,0.12456199999999999,-0.12250000000000001,0.22750000000000004,0.6300000000000001,-0.4595147617655656,-0.006138555977784273,-0.18664133294358376
1747152209.2384164,0.997594,0.000732,0.122976,-0.07,0.22750000000000004,0.6300000000000001,-0.4595147617655656,-0.006138555977784273,-0.18664133294358376
1747152209.2432904,0.99918,-0.000488,0.124318,-0.10500000000000001,0.2625,0.5775,-0.4595147617655656,-0.006138555977784273,-0.18664133294358376
1747152209.255108,0.997472,0.0013419999999999999,0.125782,-0.12250000000000001,0.15750000000000003,0.525,-0.46185325928091203,-0.005261619409529378,-0.1826951183864367
1747152209.2581084,0.99735,0.000732,0.123342,-0.052500000000000005,0.31500000000000006,0.665,-0.46185325928091203,-0.005261619409529378,-0.1826951183864367
1747152209.2629797,0.996252,0.000122,0.125416,-0.07,0.24500000000000002,0.5775,-0.46185325928091203,-0.005261619409529378,-0.1826951183864367
1747152209.2678487,0.996862,-0.0008539999999999999,0.12444,0.0,0.22750000000000004,0.665,-0.46185325928091203,-0.005261619409529378,-0.1826951183864367
1747152209.2727137,0.996984,-0.000366,0.122366,0.0175,0.17500000000000002,0.6475000000000001,-0.46185325928091203,-0.005261619409529378,-0.1826951183864367
1747152209.2775898,0.996618,-0.000122,0.122122,-0.07,0.24500000000000002,0.5425000000000001,-0.46185325928091203,-0.005261619409529378,-0.1826951183864367
1747152209.2824616,0.995642,-0.000244,0.12261,-0.052500000000000005,0.31500000000000006,0.5775,-0.46185325928091203,-0.005261619409529378,-0.1826951183864367
1747152209.2873309,0.9977159999999999,0.000976,0.125538,0.0,0.17500000000000002,0.6125,-0.46185325928091203,-0.005261619409529378,-0.1826951183864367
1747152209.2922015,0.997472,0.000366,0.12322,-0.035,0.1925,0.6300000000000001,-0.46185325928091203,-0.005261619409529378,-0.1826951183864367
1747152209.2970705,0.996618,0.000732,0.124196,-0.035,0.17500000000000002,0.5775,-0.4644840689856767,-0.00467699503069278,-0.18006430868167203
1747152209.3019428,0.995764,0.000488,0.123098,0.035,0.10500000000000001,0.6825000000000001,-0.4644840689856767,-0.00467699503069278,-0.18006430868167203
1747152209.30976,0.99796,-0.00061,0.12322,0.0175,0.1925,0.6300000000000001,-0.4644840689856767,-0.00467699503069278,-0.18006430868167203
1747152209.3126771,0.997472,-0.000976,0.093818,-0.07,0.24500000000000002,0.6125,-0.4644840689856767,-0.00467699503069278,-0.18006430868167203
1747152209.3175452,0.995764,-0.030134,0.124074,-0.12250000000000001,0.17500000000000002,0.56,-0.4644840689856767,-0.00467699503069278,-0.18006430868167203
1747152209.3224185,0.995154,-0.000244,0.124196,-0.07,0.22750000000000004,0.665,-0.4644840689856767,-0.00467699503069278,-0.18006430868167203
1747152209.32729,0.997594,0.002806,0.123586,-0.14,0.24500000000000002,0.6125,-0.4644840689856767,-0.00467699503069278,-0.18006430868167203
1747152209.3321605,0.997838,-0.000732,0.124074,-0.15750000000000003,0.2625,0.5775,-0.4644840689856767,-0.00467699503069278,-0.18006430868167203
1747152209.3370297,0.996618,0.00061,0.124684,-0.17500000000000002,0.2625,0.6125,-0.4644840689856767,-0.00467699503069278,-0.18006430868167203
1747152209.341904,0.998448,0.000366,0.12456199999999999,-0.15750000000000003,0.2625,0.5775,-0.4630225080385852,-0.0040923706518561824,-0.1867874890382929
1747152209.3467782,0.996984,0.000488,0.123342,-0.14,0.24500000000000002,0.56,-0.4630225080385852,-0.0040923706518561824,-0.1867874890382929
1747152209.3516488,0.99674,-0.000488,0.12505,-0.10500000000000001,0.31500000000000006,0.6300000000000001,-0.4630225080385852,-0.0040923706518561824,-0.1867874890382929
1747152209.3565195,0.9983259999999999,0.002928,0.125294,-0.12250000000000001,0.29750000000000004,0.6125,-0.4630225080385852,-0.0040923706518561824,-0.1867874890382929
1747152209.3637094,0.997594,0.000122,0.12395199999999999,-0.08750000000000001,0.22750000000000004,0.6300000000000001,-0.4630225080385852,-0.0040923706518561824,-0.1867874890382929
1747152209.3665822,0.997594,0.000976,0.124196,-0.08750000000000001,0.22750000000000004,0.6300000000000001,-0.4630225080385852,-0.0040923706518561824,-0.1867874890382929
1747152209.3714566,0.999058,0.0017079999999999999,0.124684,-0.12250000000000001,0.17500000000000002,0.5425000000000001,-0.4630225080385852,-0.0040923706518561824,-0.1867874890382929
1747152209.3763254,0.99735,0.00061,0.12456199999999999,-0.07,0.21000000000000002,0.6125,-0.4630225080385852,-0.0040923706518561824,-0.1867874890382929
1747152209.381197,0.997594,0.0008539999999999999,0.124074,-0.15750000000000003,0.22750000000000004,0.5775,-0.4630225080385852,-0.0040923706518561824,-0.1867874890382929
1747152209.3860784,0.998814,-0.000732,0.12383,-0.08750000000000001,0.1925,0.6125,-0.4630225080385852,-0.0040923706518561824,-0.1867874890382929
1747152209.3909485,0.997838,0.000366,0.124196,-0.07,0.17500000000000002,0.6125,-0.46185325928091203,-0.0008769365682548962,-0.19146448406898567
1747152209.3958223,0.997228,0.000122,0.124318,-0.12250000000000001,0.17500000000000002,0.6125,-0.46185325928091203,-0.0008769365682548962,-0.19146448406898567
1747152209.400696,0.9977159999999999,-0.000366,0.123708,-0.21000000000000002,0.31500000000000006,0.5950000000000001,-0.46185325928091203,-0.0008769365682548962,-0.19146448406898567
1747152209.4055667,0.996984,0.000244,0.122976,-0.17500000000000002,0.22750000000000004,0.6300000000000001,-0.46185325928091203,-0.0008769365682548962,-0.19146448406898567
1747152209.410438,0.99735,0.000122,0.124196,-0.07,0.28,0.6475000000000001,-0.46185325928091203,-0.0008769365682548962,-0.19146448406898567
1747152209.4167862,0.9964959999999999,0.000366,0.12456199999999999,-0.035,0.21000000000000002,0.6125,-0.46185325928091203,-0.0008769365682548962,-0.19146448406898567
1747152209.4201837,0.9964959999999999,0.000366,0.12456199999999999,0.035,0.21000000000000002,0.5775,-0.46185325928091203,-0.0008769365682548962,-0.19146448406898567
1747152209.4250555,0.99735,-0.001098,0.124318,-0.052500000000000005,0.24500000000000002,0.6125,-0.46185325928091203,-0.0008769365682548962,-0.19146448406898567
1747152209.4299288,0.997228,0.0008539999999999999,0.12444,-0.10500000000000001,0.22750000000000004,0.5775,-0.46185325928091203,-0.0008769365682548962,-0.19146448406898567
1747152209.4347982,0.9977159999999999,0.00061,0.124928,-0.08750000000000001,0.15750000000000003,0.56,-0.4633148202280035,0.00467699503069278,-0.188833674364221
1747152209.4396713,0.9952759999999999,0.000488,0.124806,-0.0175,0.10500000000000001,0.56,-0.4633148202280035,0.00467699503069278,-0.188833674364221
1747152209.4445417,0.995032,-0.000366,0.123708,0.07,0.21000000000000002,0.665,-0.4633148202280035,0.00467699503069278,-0.188833674364221
1747152209.4494185,0.998448,0.001952,0.123342,-0.0175,0.17500000000000002,0.5950000000000001,-0.4633148202280035,0.00467699503069278,-0.188833674364221
1747152209.4542844,0.998082,-0.000366,0.124074,-0.052500000000000005,0.1925,0.5950000000000001,-0.4633148202280035,0.00467699503069278,-0.188833674364221
1747152209.4591565,0.998082,0.000732,0.124318,0.0175,0.21000000000000002,0.6125,-0.4633148202280035,0.00467699503069278,-0.188833674364221
1747152209.4640274,0.99796,-0.00122,0.12444,-0.0175,0.1925,0.6125,-0.4633148202280035,0.00467699503069278,-0.188833674364221
1747152209.4698627,0.998814,-0.000122,0.125416,0.0,0.21000000000000002,0.6125,-0.4633148202280035,0.00467699503069278,-0.188833674364221
1747152209.4737759,0.9989359999999999,0.000366,0.124684,0.0175,0.14,0.6125,-0.4633148202280035,0.00467699503069278,-0.188833674364221
1747152209.4786475,0.999302,0.0,0.123098,-0.052500000000000005,0.10500000000000001,0.56,-0.4633148202280035,0.00467699503069278,-0.188833674364221
1747152209.483519,0.997228,0.00061,0.12322,-0.08750000000000001,0.1925,0.5425000000000001,-0.45893013738672905,0.0005846243788365975,-0.1885413621748027
1747152209.4883854,0.9977159999999999,0.0008539999999999999,0.124806,-0.07,0.14,0.5775,-0.45893013738672905,0.0005846243788365975,-0.1885413621748027
1747152209.4932613,0.998204,-0.000244,0.124684,-0.08750000000000001,0.2625,0.6475000000000001,-0.45893013738672905,0.0005846243788365975,-0.1885413621748027
1747152209.4981334,0.9995459999999999,-0.000732,0.123708,-0.052500000000000005,0.24500000000000002,0.6475000000000001,-0.45893013738672905,0.0005846243788365975,-0.1885413621748027
1747152209.5030053,0.998692,0.002196,0.12395199999999999,-0.08750000000000001,0.21000000000000002,0.5950000000000001,-0.45893013738672905,0.0005846243788365975,-0.1885413621748027
1747152209.5078783,0.997472,-0.000366,0.123464,-0.12250000000000001,0.22750000000000004,0.6300000000000001,-0.45893013738672905,0.0005846243788365975,-0.1885413621748027
1747152209.5127468,0.997472,0.000244,0.125904,-0.15750000000000003,0.22750000000000004,0.6125,-0.45893013738672905,0.0005846243788365975,-0.1885413621748027
1747152209.5176237,0.996618,-0.00122,0.12139,-0.1925,0.21000000000000002,0.6300000000000001,-0.45893013738672905,0.0005846243788365975,-0.1885413621748027
1747152209.5232103,0.9964959999999999,0.030744,0.12444,-0.10500000000000001,0.2625,0.6475000000000001,-0.45893013738672905,0.0005846243788365975,-0.1885413621748027
1747152209.5273664,0.9995459999999999,0.0,0.12444,-0.10500000000000001,0.1925,0.5425000000000001,-0.45893013738672905,-0.036831335866705645,-0.1850336159017831
1747152209.5322356,0.998814,0.001098,0.123342,-0.12250000000000001,0.24500000000000002,0.5950000000000001,-0.45513007892429114,-0.00233849751534639,-0.1850336159017831
1747152209.5371063,0.996618,-0.000122,0.12444,-0.08750000000000001,0.28,0.6300000000000001,-0.45513007892429114,-0.00233849751534639,-0.1850336159017831
1747152209.5419776,0.9971059999999999,-0.000732,0.124318,-0.12250000000000001,0.2625,0.5950000000000001,-0.45513007892429114,-0.00233849751534639,-0.1850336159017831
1747152209.5468485,0.998814,0.0008539999999999999,0.12383,-0.12250000000000001,0.24500000000000002,0.6125,-0.45513007892429114,-0.00233849751534639,-0.1850336159017831
1747152209.5517213,0.996252,0.000732,0.124806,-0.17500000000000002,0.22750000000000004,0.6475000000000001,-0.45513007892429114,-0.00233849751534639,-0.1850336159017831
1747152209.5565896,0.998082,0.0017079999999999999,0.12383,-0.14,0.21000000000000002,0.6125,-0.45513007892429114,-0.00233849751534639,-0.1850336159017831
1747152209.561464,0.998814,0.0017079999999999999,0.12383,-0.07,0.1925,0.5425000000000001,-0.45513007892429114,-0.00233849751534639,-0.1850336159017831
1747152209.5663393,0.99796,0.0017079999999999999,0.122366,-0.052500000000000005,0.21000000000000002,0.6300000000000001,-0.45513007892429114,-0.00233849751534639,-0.1850336159017831
1747152209.5712142,0.998448,0.000366,0.123586,-0.052500000000000005,0.21000000000000002,0.5775,-0.45513007892429114,-0.00233849751534639,-0.1850336159017831
1747152209.5767958,0.998082,0.001464,0.124928,0.0,0.15750000000000003,0.5950000000000001,-0.4621455714703303,-0.00233849751534639,-0.19029523531131248
1747152209.5809526,0.99552,-0.00061,0.124684,-0.07,0.14,0.525,-0.4621455714703303,-0.00233849751534639,-0.19029523531131248
1747152209.5858228,0.997228,-0.000366,0.123464,-0.10500000000000001,0.2625,0.6125,-0.4621455714703303,-0.00233849751534639,-0.19029523531131248
1747152209.5906944,0.998814,-0.000122,0.122488,0.0,0.22750000000000004,0.5775,-0.4621455714703303,-0.00233849751534639,-0.19029523531131248
1747152209.5955634,0.997838,-0.000732,0.122488,-0.0175,0.21000000000000002,0.6300000000000001,-0.4621455714703303,-0.00233849751534639,-0.19029523531131248
1747152209.6004374,0.99735,0.000122,0.12139,0.0,0.17500000000000002,0.6300000000000001,-0.4621455714703303,-0.00233849751534639,-0.19029523531131248
1747152209.6053073,0.9989359999999999,0.0013419999999999999,0.124318,0.035,0.14,0.56,-0.4621455714703303,-0.00233849751534639,-0.19029523531131248
1747152209.6101801,0.9971059999999999,0.001586,0.124196,-0.0175,0.1925,0.5425000000000001,-0.4621455714703303,-0.00233849751534639,-0.19029523531131248
1747152209.6150482,0.9977159999999999,0.0,0.12395199999999999,-0.052500000000000005,0.15750000000000003,0.56,-0.4621455714703303,-0.00233849751534639,-0.19029523531131248
1747152209.6199286,0.9983259999999999,0.001464,0.12505,0.0,0.17500000000000002,0.56,-0.4621455714703303,-0.00233849751534639,-0.19029523531131248
1747152209.6247966,0.998448,0.000122,0.122732,0.0175,0.15750000000000003,0.56,-0.46185325928091203,0.0035077462730195848,-0.18985676702718504
1747152209.6304002,1.000034,0.000732,0.12505,-0.052500000000000005,0.22750000000000004,0.6475000000000001,-0.46185325928091203,0.0035077462730195848,-0.18985676702718504
1747152209.6345453,0.9983259999999999,0.00244,0.12456199999999999,-0.052500000000000005,0.22750000000000004,0.56,-0.46185325928091203,0.0035077462730195848,-0.18985676702718504
1747152209.639419,0.998814,0.000366,0.125172,-4.4625,0.21000000000000002,0.6125,-0.46185325928091203,0.0035077462730195848,-0.18985676702718504
1747152209.6442883,0.998082,0.001098,0.12505,-0.12250000000000001,0.24500000000000002,0.6125,-0.46185325928091203,0.0035077462730195848,-0.18985676702718504
1747152209.6491616,0.997472,0.00183,0.123708,-0.12250000000000001,0.22750000000000004,0.6125,-0.46185325928091203,0.0035077462730195848,-0.18985676702718504
1747152209.6540332,0.997838,0.000488,0.124196,-0.14,0.2625,0.56,-0.46185325928091203,0.0035077462730195848,-0.18985676702718504
1747152209.658907,0.99857,-0.000244,0.12456199999999999,-0.15750000000000003,0.28,0.56,-0.46185325928091203,0.0035077462730195848,-0.18985676702718504
1747152209.6637795,0.99735,-0.00061,0.123708,-0.14,0.24500000000000002,0.5950000000000001,-0.46185325928091203,0.0035077462730195848,-0.18985676702718504
1747152209.6686516,0.9964959999999999,0.000488,0.12224399999999999,-0.08750000000000001,0.17500000000000002,0.56,-0.4630225080385852,0.0,-0.18941829874305757
1747152209.6735265,0.998814,-0.000976,0.122976,-0.12250000000000001,0.15750000000000003,0.5425000000000001,-0.4630225080385852,0.0,-0.18941829874305757
1747152209.6783996,0.997472,-0.001464,0.123586,-0.15750000000000003,0.28,0.6300000000000001,-0.4630225080385852,0.0,-0.18941829874305757
1747152209.684004,0.99735,0.000122,0.123586,-0.10500000000000001,0.17500000000000002,0.6300000000000001,-0.4630225080385852,0.0,-0.18941829874305757
1747152209.6881557,0.996374,0.0,0.124074,-0.10500000000000001,0.2625,0.6125,-0.4630225080385852,0.0,-0.18941829874305757
1747152209.6930196,0.9958859999999999,0.000976,0.123342,-0.08750000000000001,0.17500000000000002,0.5775,-0.4630225080385852,0.0,-0.18941829874305757
1747152209.6978798,0.9989359999999999,0.000732,0.124318,-0.035,0.17500000000000002,0.6300000000000001,-0.4630225080385852,0.0,-0.18941829874305757
1747152209.7027473,0.997472,0.000976,0.124928,-0.10500000000000001,0.1925,0.6300000000000001,-0.4630225080385852,0.0,-0.18941829874305757
1747152209.7076235,0.997228,-0.000488,0.124318,-0.08750000000000001,0.22750000000000004,0.5775,-0.4630225080385852,0.0,-0.18941829874305757
1747152209.7124918,0.9958859999999999,-0.000366,0.125172,-0.12250000000000001,0.24500000000000002,0.6300000000000001,-0.4630225080385852,0.0,-0.18941829874305757
1747152209.7173622,0.9971059999999999,0.000488,0.123342,-0.10500000000000001,0.21000000000000002,0.5950000000000001,-0.46799181525869626,-0.006430868167202572,-0.1908798596901491
1747152209.7222536,0.999302,0.000732,0.12444,-0.10500000000000001,0.24500000000000002,0.5775,-0.46799181525869626,-0.006430868167202572,-0.1908798596901491
1747152209.7271159,0.995642,-0.000244,0.124196,-0.08750000000000001,0.28,0.6300000000000001,-0.46799181525869626,-0.006430868167202572,-0.1908798596901491
1747152209.7319863,0.99735,0.000488,0.12383,-0.08750000000000001,0.22750000000000004,0.6300000000000001,-0.46799181525869626,-0.006430868167202572,-0.1908798596901491
1747152209.7375805,0.99674,0.000122,0.124074,0.0175,0.12250000000000001,0.6300000000000001,-0.46799181525869626,-0.006430868167202572,-0.1908798596901491
1747152209.7417336,0.995398,-0.000122,0.12444,0.0,0.12250000000000001,0.6300000000000001,-0.46799181525869626,-0.006430868167202572,-0.1908798596901491
1747152209.7465997,0.998082,-0.000244,0.122,-0.07,0.12250000000000001,0.5425000000000001,-0.46799181525869626,-0.006430868167202572,-0.1908798596901491
1747152209.7514691,0.9983259999999999,-0.000976,0.12383,-0.035,0.21000000000000002,0.6300000000000001,-0.46799181525869626,-0.006430868167202572,-0.1908798596901491
1747152209.7563438,0.9977159999999999,-0.000122,0.122,-0.035,0.24500000000000002,0.5950000000000001,-0.46799181525869626,-0.006430868167202572,-0.1908798596901491
1747152209.7612185,0.998692,0.000732,0.123464,-0.07,0.15750000000000003,0.56,-0.46799181525869626,-0.006430868167202572,-0.1908798596901491
1747152209.7660933,0.996252,0.000244,0.123586,-0.052500000000000005,0.052500000000000005,0.525,-0.45922244957614733,-0.00029231218941829873,-0.19204910844782228
1747152209.770965,0.99857,-0.000244,0.125538,-0.08750000000000001,0.2625,0.7350000000000001,-0.45922244957614733,-0.00029231218941829873,-0.19204910844782228
1747152209.7758393,0.99857,0.000366,0.12395199999999999,-0.08750000000000001,0.2625,0.6475000000000001,-0.45922244957614733,-0.00029231218941829873,-0.19204910844782228
1747152209.7807121,0.999058,0.00122,0.124074,-0.08750000000000001,0.2625,0.5950000000000001,-0.45922244957614733,-0.00029231218941829873,-0.19204910844782228
1747152209.7855868,0.997838,0.0008539999999999999,0.124684,-0.12250000000000001,0.21000000000000002,0.5950000000000001,-0.45922244957614733,-0.00029231218941829873,-0.19204910844782228
1747152209.7911959,0.997594,-0.000244,0.12444,-0.10500000000000001,0.2625,0.6125,-0.45922244957614733,-0.00029231218941829873,-0.19204910844782228
1747152209.795332,0.9983259999999999,0.0008539999999999999,0.124684,-0.10500000000000001,0.2625,0.5775,-0.45922244957614733,-0.00029231218941829873,-0.19204910844782228
1747152209.800203,0.998692,-0.000366,0.12322,-0.15750000000000003,0.22750000000000004,0.6125,-0.45922244957614733,-0.00029231218941829873,-0.19204910844782228
1747152209.80507,0.998204,0.000488,0.12383,-0.07,0.24500000000000002,0.6475000000000001,-0.45922244957614733,-0.00029231218941829873,-0.19204910844782228
1747152209.8099377,0.997838,0.000122,0.125782,-0.12250000000000001,0.28,0.5775,-0.4612686349020754,-0.0014615609470914938,-0.1905875475007308
1747152209.8148165,0.9977159999999999,0.0017079999999999999,0.12383,-0.12250000000000001,0.15750000000000003,0.5950000000000001,-0.4612686349020754,-0.0014615609470914938,-0.1905875475007308
1747152209.8196852,0.997594,0.001098,0.12395199999999999,-0.21000000000000002,0.22750000000000004,0.6300000000000001,-0.4612686349020754,-0.0014615609470914938,-0.1905875475007308
1747152209.8245575,0.996984,0.000244,0.123586,-0.1925,0.17500000000000002,0.5775,-0.4612686349020754,-0.0014615609470914938,-0.1905875475007308
1747152209.8294272,0.997472,0.000366,0.12383,-0.1925,0.24500000000000002,0.6300000000000001,-0.4612686349020754,-0.0014615609470914938,-0.1905875475007308
1747152209.8343005,0.998814,0.0,0.12285399999999999,-0.10500000000000001,0.22750000000000004,0.5950000000000001,-0.4612686349020754,-0.0014615609470914938,-0.1905875475007308
1747152209.8391764,0.998082,0.000732,0.125294,-0.052500000000000005,0.21000000000000002,0.6125,-0.4612686349020754,-0.0014615609470914938,-0.1905875475007308
1747152209.8447642,0.9989359999999999,-0.000732,0.12456199999999999,-0.0175,0.10500000000000001,0.56,-0.4612686349020754,-0.0014615609470914938,-0.1905875475007308
1747152209.8489199,0.99613,0.000732,0.125538,-0.052500000000000005,0.1925,0.6475000000000001,-0.4612686349020754,-0.0014615609470914938,-0.1905875475007308
1747152209.8537893,0.998082,0.00183,0.12285399999999999,-0.10500000000000001,0.31500000000000006,0.6825000000000001,-0.4612686349020754,-0.0014615609470914938,-0.1905875475007308
1747152209.8586645,0.99796,0.00244,0.125172,0.0175,0.15750000000000003,0.6125,-0.46389944460684013,-0.0017538731365097924,-0.1885413621748027
1747152209.8635387,0.996252,0.000122,0.12444,0.0,0.12250000000000001,0.5425000000000001,-0.46389944460684013,-0.0017538731365097924,-0.1885413621748027
1747152209.8684044,0.996984,-0.0008539999999999999,0.12322,0.0175,0.17500000000000002,0.5950000000000001,-0.46389944460684013,-0.0017538731365097924,-0.1885413621748027
1747152209.8732774,0.996862,-0.000122,0.124074,-0.052500000000000005,0.2625,0.56,-0.46389944460684013,-0.0017538731365097924,-0.1885413621748027
1747152209.8781512,0.99613,0.000122,0.124196,0.0,0.1925,0.5950000000000001,-0.46389944460684013,-0.0017538731365097924,-0.1885413621748027
1747152209.8830204,0.996984,0.001464,0.12444,0.0175,0.14,0.6125,-0.46389944460684013,-0.0017538731365097924,-0.1885413621748027
1747152209.8878937,0.99674,0.030987999999999998,0.12383,-0.08750000000000001,0.10500000000000001,0.5425000000000001,-0.46389944460684013,-0.0017538731365097924,-0.1885413621748027
1747152209.8927634,0.9977159999999999,-0.000122,0.125172,0.0,0.22750000000000004,0.6125,-0.46389944460684013,-0.0017538731365097924,-0.1885413621748027
1747152209.898351,0.99918,0.000366,0.12322,-0.035,0.21000000000000002,0.6300000000000001,-0.46389944460684013,-0.0017538731365097924,-0.1885413621748027
1747152209.9025102,0.9964959999999999,0.000976,0.124196,-0.0175,0.22750000000000004,0.5950000000000001,-0.45776088862905584,0.0005846243788365975,-0.19614147909967847
1747152209.907382,0.997838,0.000122,0.12444,0.0175,0.10500000000000001,0.5775,-0.45776088862905584,0.0005846243788365975,-0.19614147909967847
1747152209.9122527,0.99674,-0.0013419999999999999,0.124806,-0.035,0.29750000000000004,0.665,-0.45776088862905584,0.0005846243788365975,-0.19614147909967847
1747152209.9171228,0.9971059999999999,0.0,0.12395199999999999,-0.08750000000000001,0.21000000000000002,0.5950000000000001,-0.45776088862905584,0.0005846243788365975,-0.19614147909967847
1747152209.921995,0.997594,0.000244,0.122976,-0.08750000000000001,0.15750000000000003,0.5950000000000001,-0.45776088862905584,0.0005846243788365975,-0.19614147909967847
1747152209.92687,0.998814,-0.000366,0.12395199999999999,-0.14,0.24500000000000002,0.5950000000000001,-0.45776088862905584,0.0005846243788365975,-0.19614147909967847
1747152209.9317431,0.996862,-0.00061,0.123342,-0.15750000000000003,0.28,0.6300000000000001,-0.45776088862905584,0.0005846243788365975,-0.19614147909967847
1747152209.9366107,0.997228,-0.000488,0.12505,-0.17500000000000002,0.28,0.6300000000000001,-0.45776088862905584,0.0005846243788365975,-0.19614147909967847
1747152209.941481,0.997228,0.000366,0.123342,-0.1925,0.28,0.6125,-0.45776088862905584,0.0005846243788365975,-0.19614147909967847
1747152209.9463594,0.997472,0.000244,0.123708,-0.17500000000000002,0.28,0.6125,-0.45776088862905584,0.0005846243788365975,-0.19614147909967847
1747152209.951947,0.9964959999999999,-0.000122,0.12395199999999999,-0.17500000000000002,0.24500000000000002,0.5950000000000001,-0.46389944460684013,-0.009061677871967261,-0.1841566793335282
1747152209.9561017,0.9977159999999999,-0.0008539999999999999,0.123342,-0.15750000000000003,0.21000000000000002,0.5775,-0.46389944460684013,-0.009061677871967261,-0.1841566793335282
1747152209.9609823,0.996618,-0.0013419999999999999,0.12395199999999999,-0.07,0.24500000000000002,0.665,-0.46389944460684013,-0.009061677871967261,-0.1841566793335282
1747152209.965845,0.996252,-0.000244,0.123098,-0.14,0.22750000000000004,0.6125,-0.46389944460684013,-0.009061677871967261,-0.1841566793335282
1747152209.9707153,0.9977159999999999,0.001586,0.12456199999999999,-0.07,0.22750000000000004,0.5775,-0.46389944460684013,-0.009061677871967261,-0.1841566793335282
1747152209.9755888,0.9995459999999999,0.000732,0.125294,-0.15750000000000003,0.2625,0.6125,-0.46389944460684013,-0.009061677871967261,-0.1841566793335282
1747152209.9804566,0.996984,0.00061,0.124318,-0.12250000000000001,0.24500000000000002,0.5950000000000001,-0.46389944460684013,-0.009061677871967261,-0.1841566793335282
1747152209.985328,0.996008,0.000488,0.124806,-0.035,0.21000000000000002,0.5950000000000001,-0.46389944460684013,-0.009061677871967261,-0.1841566793335282
1747152209.9902036,0.99735,0.000122,0.124806,-0.17500000000000002,0.21000000000000002,0.6300000000000001,-0.46389944460684013,-0.009061677871967261,-0.1841566793335282
1747152209.995075,0.997838,-0.000366,0.123098,-0.052500000000000005,0.15750000000000003,0.6475000000000001,-0.46389944460684013,-0.009061677871967261,-0.1841566793335282
1747152209.9999475,0.99979,0.00244,0.123342,0.0175,0.17500000000000002,0.5775,-0.46185325928091203,-0.0040923706518561824,-0.1870798012277112
1747152210.0055318,0.998448,0.000732,0.124684,-0.052500000000000005,0.21000000000000002,0.6475000000000001,-0.46185325928091203,-0.0040923706518561824,-0.1870798012277112
1747152210.0096896,0.997472,-0.000366,0.12322,-0.12250000000000001,0.24500000000000002,0.6300000000000001,-0.46185325928091203,-0.0040923706518561824,-0.1870798012277112
1747152210.014559,0.997838,0.000976,0.124318,-0.052500000000000005,0.24500000000000002,0.665,-0.46185325928091203,-0.0040923706518561824,-0.1870798012277112
1747152210.0194306,0.994178,-0.0017079999999999999,0.126026,0.0,0.17500000000000002,0.5775,-0.46185325928091203,-0.0040923706518561824,-0.1870798012277112
1747152210.024301,0.9983259999999999,0.000488,0.12383,-0.052500000000000005,0.21000000000000002,0.5775,-0.46185325928091203,-0.0040923706518561824,-0.1870798012277112
1747152210.0291715,0.998204,0.000244,0.123098,-0.035,0.17500000000000002,0.5775,-0.46185325928091203,-0.0040923706518561824,-0.1870798012277112
1747152210.0341136,0.997472,0.00061,0.12395199999999999,-0.0175,0.21000000000000002,0.6475000000000001,-0.46185325928091203,-0.0040923706518561824,-0.1870798012277112
1747152210.038995,0.996984,-0.0013419999999999999,0.124318,-0.10500000000000001,0.1925,0.6125,-0.46185325928091203,-0.0040923706518561824,-0.1870798012277112
1747152210.043862,0.9971059999999999,0.0023179999999999997,0.12383,-0.15750000000000003,0.22750000000000004,0.5775,-0.4621455714703303,0.00029231218941829873,-0.1870798012277112
1747152210.0487292,0.998448,0.000976,0.125416,-0.17500000000000002,0.24500000000000002,0.5425000000000001,-0.4621455714703303,0.00029231218941829873,-0.1870798012277112
1747152210.0536025,0.996618,0.000244,0.124806,-0.2625,0.35000000000000003,0.6125,-0.4621455714703303,0.00029231218941829873,-0.1870798012277112
1747152210.059198,0.998082,0.000366,0.12285399999999999,-0.1925,0.3325,0.5775,-0.4621455714703303,0.00029231218941829873,-0.1870798012277112
1747152210.0633543,0.9958859999999999,-0.0008539999999999999,0.122732,-0.17500000000000002,0.31500000000000006,0.5775,-0.4621455714703303,0.00029231218941829873,-0.1870798012277112
1747152210.068217,0.998448,0.001464,0.124928,-0.22750000000000004,0.2625,0.56,-0.4621455714703303,0.00029231218941829873,-0.1870798012277112
1747152210.0730891,0.996618,-0.0013419999999999999,0.124074,-0.07,0.15750000000000003,0.6125,-0.4621455714703303,0.00029231218941829873,-0.1870798012277112
1747152210.0779636,0.9983259999999999,0.0013419999999999999,0.12505,-0.17500000000000002,0.1925,0.6125,-0.4621455714703303,0.00029231218941829873,-0.1870798012277112
1747152210.0828366,0.997472,0.000488,0.124074,-0.10500000000000001,0.21000000000000002,0.5775,-0.4621455714703303,0.00029231218941829873,-0.1870798012277112
1747152210.0877073,0.99735,0.000976,0.12322,-0.07,0.1925,0.5950000000000001,-0.4621455714703303,0.00029231218941829873,-0.1870798012277112
1747152210.0925765,0.99857,0.000976,0.125782,0.035,0.08750000000000001,0.5775,-0.4659456299327682,0.0029231218941829875,-0.18006430868167203
1747152210.0974474,0.9977159999999999,-0.000366,0.12261,0.035,0.10500000000000001,0.665,-0.4659456299327682,0.0029231218941829875,-0.18006430868167203
1747152210.102321,0.99796,0.000976,0.12456199999999999,-4.48,0.10500000000000001,0.5950000000000001,-0.4659456299327682,0.0029231218941829875,-0.18006430868167203
1747152210.1071923,0.998692,-0.0008539999999999999,0.124196,-0.0175,0.12250000000000001,0.6125,-0.4659456299327682,0.0029231218941829875,-0.18006430868167203
1747152210.1127956,0.997228,0.000244,0.12444,0.0175,0.24500000000000002,0.6125,-0.4659456299327682,0.0029231218941829875,-0.18006430868167203
1747152210.1169345,0.997228,0.000244,0.124196,-0.0175,0.1925,0.5950000000000001,-0.4659456299327682,0.0029231218941829875,-0.18006430868167203
1747152210.1218023,0.996252,0.000122,0.122976,0.0,0.15750000000000003,0.5950000000000001,-0.4659456299327682,0.0029231218941829875,-0.18006430868167203
1747152210.1266751,0.997472,0.000122,0.124806,0.0175,0.17500000000000002,0.6125,-0.4659456299327682,0.0029231218941829875,-0.18006430868167203
1747152210.1315455,0.998204,0.0008539999999999999,0.124196,0.0175,0.15750000000000003,0.6125,-0.4659456299327682,0.0029231218941829875,-0.18006430868167203
1747152210.1364193,0.998692,0.001098,0.120658,0.052500000000000005,0.12250000000000001,0.5775,-0.4674071908798597,0.00233849751534639,-0.1862028646594563
1747152210.1412892,0.997594,-0.000122,0.124684,-0.0175,0.12250000000000001,0.5950000000000001,-0.4674071908798597,0.00233849751534639,-0.1862028646594563
1747152210.1461565,0.99796,0.00061,0.124074,0.0,0.29750000000000004,0.665,-0.4674071908798597,0.00233849751534639,-0.1862028646594563
1747152210.151032,0.998814,0.00183,0.122976,0.052500000000000005,0.21000000000000002,0.5950000000000001,-0.4674071908798597,0.00233849751534639,-0.1862028646594563
1747152210.1559043,0.996618,-0.00061,0.12322,0.0,0.15750000000000003,0.5950000000000001,-0.4674071908798597,0.00233849751534639,-0.1862028646594563
1747152210.1607754,0.996374,0.00122,0.124074,-0.052500000000000005,0.14,0.5775,-0.4674071908798597,0.00233849751534639,-0.1862028646594563
1747152210.1663983,0.998692,0.000976,0.12444,-0.052500000000000005,0.14,0.6125,-0.4674071908798597,0.00233849751534639,-0.1862028646594563
1747152210.1705317,0.9971059999999999,-0.00061,0.122732,-0.052500000000000005,0.1925,0.5775,-0.4674071908798597,0.00233849751534639,-0.1862028646594563
1747152210.1754022,0.9964959999999999,0.00122,0.125172,-0.17500000000000002,0.22750000000000004,0.6125,-0.4674071908798597,0.00233849751534639,-0.1862028646594563
1747152210.1802711,0.996618,0.001098,0.12285399999999999,-0.17500000000000002,0.24500000000000002,0.5775,-0.4674071908798597,0.00233849751534639,-0.1862028646594563
1747152210.1851413,0.99674,-0.000244,0.12444,-0.1925,0.28,0.5775,-0.4600993861444022,-0.0008769365682548962,-0.18488745980707397
1747152210.1900132,0.996374,-0.000244,0.123586,-0.24500000000000002,0.21000000000000002,0.5775,-0.4600993861444022,-0.0008769365682548962,-0.18488745980707397
1747152210.1948876,0.99796,-0.000366,0.12566,-0.15750000000000003,0.29750000000000004,0.7000000000000001,-0.4600993861444022,-0.0008769365682548962,-0.18488745980707397
1747152210.1997583,0.99857,0.00122,0.12383,-0.15750000000000003,0.28,0.6475000000000001,-0.4600993861444022,-0.0008769365682548962,-0.18488745980707397
1747152210.204628,0.99735,0.000488,0.126148,-0.1925,0.28,0.5950000000000001,-0.4600993861444022,-0.0008769365682548962,-0.18488745980707397
1747152210.2094982,0.999668,0.00061,0.122732,-0.17500000000000002,0.21000000000000002,0.5950000000000001,-0.4600993861444022,-0.0008769365682548962,-0.18488745980707397
1747152210.2143743,0.997838,-0.00061,0.123098,-0.17500000000000002,0.2625,0.6475000000000001,-0.4600993861444022,-0.0008769365682548962,-0.18488745980707397
1747152210.2199955,0.998448,-0.000488,0.125416,-0.17500000000000002,0.28,0.6300000000000001,-0.4600993861444022,-0.0008769365682548962,-0.18488745980707397
1747152210.2241135,0.9964959999999999,-0.000488,0.125416,0.0175,0.17500000000000002,0.6125,-0.4600993861444022,-0.0008769365682548962,-0.18488745980707397
1747152210.2289834,0.998082,-0.0008539999999999999,0.12395199999999999,-0.10500000000000001,0.21000000000000002,0.5950000000000001,-0.4600993861444022,-0.0008769365682548962,-0.18488745980707397
1747152210.2338545,0.999912,-0.0017079999999999999,0.124196,-0.15750000000000003,0.1925,0.525,-0.4662379421221865,-0.006138555977784273,-0.188833674364221
1747152210.2387252,0.99857,0.000366,0.123342,-0.21000000000000002,0.31500000000000006,0.5950000000000001,-0.4662379421221865,-0.006138555977784273,-0.188833674364221
1747152210.2435966,0.996862,0.00061,0.12395199999999999,-0.17500000000000002,0.24500000000000002,0.5775,-0.4662379421221865,-0.006138555977784273,-0.188833674364221
1747152210.248468,0.998082,-0.001464,0.12444,-0.12250000000000001,0.2625,0.5950000000000001,-0.4662379421221865,-0.006138555977784273,-0.188833674364221
1747152210.2533393,0.995764,0.000122,0.12261,-0.10500000000000001,0.24500000000000002,0.6300000000000001,-0.4662379421221865,-0.006138555977784273,-0.188833674364221
1747152210.258209,0.998814,-0.0008539999999999999,0.124684,-0.10500000000000001,0.1925,0.5950000000000001,-0.4662379421221865,-0.006138555977784273,-0.188833674364221
1747152210.2630825,0.99613,-0.001098,0.12456199999999999,-0.07,0.22750000000000004,0.6300000000000001,-0.4662379421221865,-0.006138555977784273,-0.188833674364221
1747152210.267958,0.99735,0.0026839999999999998,0.123342,-0.08750000000000001,0.21000000000000002,0.5950000000000001,-0.4662379421221865,-0.006138555977784273,-0.188833674364221
1747152210.2794335,0.997472,-0.0013419999999999999,0.123342,-0.08750000000000001,0.17500000000000002,0.5950000000000001,-0.4615609470914937,0.005553931598947676,-0.18547208418591055
1747152210.2823503,0.998448,-0.000122,0.123708,-0.052500000000000005,0.0,0.45500000000000007,-0.4615609470914937,0.005553931598947676,-0.18547208418591055
1747152210.287221,0.997472,0.001098,0.12456199999999999,-0.07,0.24500000000000002,0.5775,-0.4615609470914937,0.005553931598947676,-0.18547208418591055
1747152210.2920916,0.998692,0.000366,0.123342,-0.14,0.28,0.6125,-0.4615609470914937,0.005553931598947676,-0.18547208418591055
1747152210.2969584,0.997228,0.000488,0.123098,-0.12250000000000001,0.385,0.7175,-0.4615609470914937,0.005553931598947676,-0.18547208418591055
1747152210.3018332,0.996252,-0.000366,0.124074,-0.12250000000000001,0.28,0.5950000000000001,-0.4615609470914937,0.005553931598947676,-0.18547208418591055
1747152210.3067062,0.99796,0.001098,0.124928,-0.14,0.2625,0.6125,-0.4615609470914937,0.005553931598947676,-0.18547208418591055
1747152210.3115761,0.9964959999999999,0.000732,0.12505,-0.17500000000000002,0.29750000000000004,0.5950000000000001,-0.4615609470914937,0.005553931598947676,-0.18547208418591055
1747152210.3164475,0.998814,-0.000122,0.12444,-0.22750000000000004,0.28,0.6125,-0.4615609470914937,0.005553931598947676,-0.18547208418591055
1747152210.3213153,0.997594,0.0017079999999999999,0.123342,-0.24500000000000002,0.28,0.6125,-0.4615609470914937,0.005553931598947676,-0.18547208418591055
1747152210.3261895,0.996252,0.0023179999999999997,0.124318,-0.24500000000000002,0.28,0.5950000000000001,-0.464776381175095,0.006723180356620871,-0.18181818181818182
1747152210.3340063,0.9977159999999999,0.0017079999999999999,0.125904,-0.1925,0.3325,0.665,-0.464776381175095,0.006723180356620871,-0.18181818181818182
1747152210.3368554,0.99674,0.0008539999999999999,0.12444,-0.07,0.2625,0.5425000000000001,-0.464776381175095,0.006723180356620871,-0.18181818181818182
1747152210.3417263,0.998204,0.00061,0.126392,-0.07,0.22750000000000004,0.5775,-0.464776381175095,0.006723180356620871,-0.18181818181818182
1747152210.3465972,0.996618,0.000122,0.12322,-0.1925,0.28,0.5950000000000001,-0.464776381175095,0.006723180356620871,-0.18181818181818182
1747152210.3514698,0.9971059999999999,0.001586,0.124318,-0.14,0.29750000000000004,0.6475000000000001,-0.464776381175095,0.006723180356620871,-0.18181818181818182
1747152210.3563414,0.9971059999999999,0.000488,0.12566,-0.14,0.28,0.6125,-0.464776381175095,0.006723180356620871,-0.18181818181818182
1747152210.3612125,0.99674,-0.002074,0.125416,-0.14,0.24500000000000002,0.5950000000000001,-0.464776381175095,0.006723180356620871,-0.18181818181818182
1747152210.3660827,0.9971059999999999,0.002196,0.12456199999999999,-0.07,0.28,0.6300000000000001,-0.464776381175095,0.006723180356620871,-0.18181818181818182
1747152210.370955,0.998814,-0.000366,0.123464,-0.10500000000000001,0.2625,0.5950000000000001,-0.4492838351359252,-0.001169248757673195,-0.18079508915521778
1747152210.3758285,0.996862,0.000488,0.122,-0.15750000000000003,0.17500000000000002,0.5775,-0.4492838351359252,-0.001169248757673195,-0.18079508915521778
1747152210.380709,0.997594,0.000244,0.12395199999999999,-0.12250000000000001,0.2625,0.6475000000000001,-0.4492838351359252,-0.001169248757673195,-0.18079508915521778
1747152210.3879468,0.99735,0.0017079999999999999,0.125538,-0.08750000000000001,0.14,0.5775,-0.4492838351359252,-0.001169248757673195,-0.18079508915521778
1747152210.3908677,0.9989359999999999,0.00122,0.124318,-0.08750000000000001,0.14,0.5775,-0.4492838351359252,-0.001169248757673195,-0.18079508915521778
1747152210.3957381,0.996008,0.000488,0.123708,-0.15750000000000003,0.24500000000000002,0.6125,-0.4492838351359252,-0.001169248757673195,-0.18079508915521778
1747152210.4006088,0.998204,0.001952,0.12261,-0.1925,0.35000000000000003,0.6475000000000001,-0.4492838351359252,-0.001169248757673195,-0.18079508915521778
1747152210.40548,0.9958859999999999,-0.000244,0.12383,-0.14,0.2625,0.6475000000000001,-0.4492838351359252,-0.001169248757673195,-0.18079508915521778
1747152210.4103513,0.998448,0.002196,0.124806,-0.15750000000000003,0.2625,0.6125,-0.4492838351359252,-0.001169248757673195,-0.18079508915521778
1747152210.4152248,0.99857,-0.0026839999999999998,0.12383,-0.10500000000000001,0.2625,0.6125,-0.4492838351359252,-0.001169248757673195,-0.18079508915521778
1747152210.4200954,0.999058,0.0013419999999999999,0.12505,-0.12250000000000001,0.24500000000000002,0.5075000000000001,-0.4653610055539316,0.006430868167202572,-0.18576439637532885
1747152210.4249663,0.9958859999999999,0.000732,0.123342,-0.1925,0.29750000000000004,0.6475000000000001,-0.4653610055539316,0.006430868167202572,-0.18576439637532885
1747152210.429837,0.99918,0.0,0.125538,-0.12250000000000001,0.28,0.6300000000000001,-0.4653610055539316,0.006430868167202572,-0.18576439637532885
1747152210.434709,0.997594,0.000732,0.12383,-0.10500000000000001,0.31500000000000006,0.6125,-0.4653610055539316,0.006430868167202572,-0.18576439637532885
1747152210.44102,0.998204,-0.000732,0.12456199999999999,-0.07,0.22750000000000004,0.6125,-0.4653610055539316,0.006430868167202572,-0.18576439637532885
1747152210.4444501,0.998204,-0.000488,0.12285399999999999,-0.052500000000000005,0.15750000000000003,0.6125,-0.4653610055539316,0.006430868167202572,-0.18576439637532885
1747152210.4493191,0.99674,0.00061,0.12444,-0.14,0.22750000000000004,0.6125,-0.4653610055539316,0.006430868167202572,-0.18576439637532885
1747152210.4541917,0.997228,-0.000244,0.12456199999999999,-0.08750000000000001,0.17500000000000002,0.5425000000000001,-0.4653610055539316,0.006430868167202572,-0.18576439637532885
1747152210.4590633,0.996008,0.000122,0.12261,-0.052500000000000005,0.17500000000000002,0.6125,-0.4653610055539316,0.006430868167202572,-0.18576439637532885
1747152210.4639366,0.998082,-0.001464,0.125294,-0.08750000000000001,0.15750000000000003,0.5950000000000001,-0.4630225080385852,-0.003215434083601286,-0.17816427945045307
1747152210.4688036,0.99857,0.000122,0.12566,-0.035,0.12250000000000001,0.525,-0.4630225080385852,-0.003215434083601286,-0.17816427945045307
1747152210.4736755,0.996374,-0.000366,0.124318,-0.052500000000000005,0.22750000000000004,0.5775,-0.4630225080385852,-0.003215434083601286,-0.17816427945045307
1747152210.4785466,0.99552,0.000244,0.12566,-0.052500000000000005,0.1925,0.525,-0.4630225080385852,-0.003215434083601286,-0.17816427945045307
1747152210.4834187,0.9977159999999999,0.000732,0.123342,-0.052500000000000005,0.15750000000000003,0.6125,-0.4630225080385852,-0.003215434083601286,-0.17816427945045307
1747152210.4882903,0.99796,0.000976,0.12322,-0.08750000000000001,0.21000000000000002,0.6125,-0.4630225080385852,-0.003215434083601286,-0.17816427945045307
1747152210.4940944,0.997838,0.001586,0.125538,0.0175,0.21000000000000002,0.5775,-0.4630225080385852,-0.003215434083601286,-0.17816427945045307
1747152210.498032,0.996862,0.00061,0.123464,0.0,0.22750000000000004,0.6300000000000001,-0.4630225080385852,-0.003215434083601286,-0.17816427945045307
1747152210.5029037,0.997838,0.001098,0.12322,0.035,0.12250000000000001,0.6125,-0.4630225080385852,-0.003215434083601286,-0.17816427945045307
1747152210.5077767,0.998204,0.00122,0.123098,0.0175,0.15750000000000003,0.6300000000000001,-0.4630225080385852,-0.003215434083601286,-0.17816427945045307
1747152210.5126445,0.998204,0.001464,0.12627,0.0,0.1925,0.5950000000000001,-0.4653610055539316,-0.0029231218941829875,-0.18211049400760013
1747152210.5175197,0.996618,0.0017079999999999999,0.122122,-0.0175,0.08750000000000001,0.525,-0.4653610055539316,-0.0029231218941829875,-0.18211049400760013
1747152210.5223904,0.9977159999999999,0.000488,0.124684,-0.035,0.24500000000000002,0.6475000000000001,-0.4653610055539316,-0.0029231218941829875,-0.18211049400760013
1747152210.5272627,0.996008,0.00061,0.124806,-0.0175,0.17500000000000002,0.6300000000000001,-0.4653610055539316,-0.0029231218941829875,-0.18211049400760013
1747152210.5321472,0.99735,-0.00122,0.12383,0.0,0.1925,0.6300000000000001,-0.4653610055539316,-0.0029231218941829875,-0.18211049400760013
1747152210.537004,0.997472,0.00183,0.125172,-0.0175,0.15750000000000003,0.5950000000000001,-0.4653610055539316,-0.0029231218941829875,-0.18211049400760013
1747152210.5418763,0.99857,0.001098,0.12444,0.0175,0.15750000000000003,0.6125,-0.4653610055539316,-0.0029231218941829875,-0.18211049400760013
1747152210.5474572,0.99552,0.002562,0.125172,-0.035,0.21000000000000002,0.6300000000000001,-0.4653610055539316,-0.0029231218941829875,-0.18211049400760013
1747152210.5516167,0.99552,0.002562,0.09394,-0.10500000000000001,0.28,0.5950000000000001,-0.4653610055539316,-0.0029231218941829875,-0.18211049400760013
1747152210.556485,0.996374,0.030866,0.122976,-0.035,0.15750000000000003,0.5950000000000001,-0.4653610055539316,-0.0029231218941829875,-0.18211049400760013
1747152210.5613568,0.99613,0.000976,0.124806,0.0175,0.10500000000000001,0.5425000000000001,-0.4659456299327682,0.0020461853259280912,-0.17670271850336158
1747152210.5662272,0.996862,0.001098,0.12322,-0.035,0.24500000000000002,0.6125,-0.4659456299327682,0.0020461853259280912,-0.17670271850336158
1747152210.5711017,0.9971059999999999,0.001952,0.124318,-0.0175,0.21000000000000002,0.6125,-0.4659456299327682,0.0020461853259280912,-0.17670271850336158
1747152210.5759726,0.9983259999999999,-0.00061,0.12395199999999999,-0.052500000000000005,0.21000000000000002,0.56,-0.4659456299327682,0.0020461853259280912,-0.17670271850336158
1747152210.5808415,0.997228,-0.000244,0.125294,-0.07,0.21000000000000002,0.6125,-0.4659456299327682,0.0020461853259280912,-0.17670271850336158
1747152210.585711,0.997594,0.000366,0.12383,-0.052500000000000005,0.1925,0.5950000000000001,-0.4659456299327682,0.0020461853259280912,-0.17670271850336158
1747152210.5905843,0.996618,-0.000366,0.124806,-0.10500000000000001,0.22750000000000004,0.6300000000000001,-0.4659456299327682,0.0020461853259280912,-0.17670271850336158
1747152210.5954685,0.99674,0.0008539999999999999,0.12285399999999999,-0.052500000000000005,0.1925,0.5950000000000001,-0.4659456299327682,0.0020461853259280912,-0.17670271850336158
1747152210.601053,0.996252,-0.000122,0.124196,-0.14,0.14,0.5775,-0.4659456299327682,0.0020461853259280912,-0.17670271850336158
1747152210.605209,0.9958859999999999,-0.000244,0.12456199999999999,-0.12250000000000001,0.10500000000000001,0.525,-0.4697456883952061,0.00467699503069278,-0.18079508915521778
1747152210.610077,0.999058,0.0,0.124806,-0.10500000000000001,0.17500000000000002,0.6300000000000001,-0.4697456883952061,0.00467699503069278,-0.18079508915521778
1747152210.6149538,0.99613,0.000976,0.12383,-0.21000000000000002,0.35000000000000003,0.665,-0.4697456883952061,0.00467699503069278,-0.18079508915521778
1747152210.619825,0.997838,-0.000244,0.12566,-0.14,0.24500000000000002,0.6125,-0.4697456883952061,0.00467699503069278,-0.18079508915521778
1747152210.624692,0.995154,0.0008539999999999999,0.123098,-0.15750000000000003,0.21000000000000002,0.6300000000000001,-0.4697456883952061,0.00467699503069278,-0.18079508915521778
1747152210.629563,0.995764,0.0013419999999999999,0.124928,-0.14,0.24500000000000002,0.5775,-0.4697456883952061,0.00467699503069278,-0.18079508915521778
1747152210.6344364,0.9971059999999999,0.000122,0.12456199999999999,-0.17500000000000002,0.28,0.5775,-0.4697456883952061,0.00467699503069278,-0.18079508915521778
1747152210.6393101,0.997228,0.00183,0.123586,-0.17500000000000002,0.2625,0.5950000000000001,-0.4697456883952061,0.00467699503069278,-0.18079508915521778
1747152210.6441808,0.997472,0.000732,0.12322,-0.1925,0.24500000000000002,0.6300000000000001,-0.4697456883952061,0.00467699503069278,-0.18079508915521778
1747152210.6490521,0.995764,0.000244,0.124196,-0.10500000000000001,0.22750000000000004,0.6125,-0.4697456883952061,0.00467699503069278,-0.18079508915521778
1747152210.6546342,0.998204,-0.000488,0.121756,-0.08750000000000001,0.14,0.5425000000000001,-0.4612686349020754,-0.0005846243788365975,-0.17670271850336158
1747152210.658795,0.997472,-0.000976,0.121756,-0.17500000000000002,0.29750000000000004,0.6475000000000001,-0.4612686349020754,-0.0005846243788365975,-0.17670271850336158
1747152210.6636665,0.996618,-0.000366,0.125782,-0.07,0.21000000000000002,0.6475000000000001,-0.4612686349020754,-0.0005846243788365975,-0.17670271850336158
1747152210.6685343,0.996618,0.000488,0.12627,-0.08750000000000001,0.22750000000000004,0.5775,-0.4612686349020754,-0.0005846243788365975,-0.17670271850336158
1747152210.6734087,0.99735,-0.030255999999999998,0.122976,-0.10500000000000001,0.21000000000000002,0.5775,-0.4612686349020754,-0.0005846243788365975,-0.17670271850336158
1747152210.678282,0.998814,0.001098,0.125416,-0.07,0.17500000000000002,0.6300000000000001,-0.4612686349020754,-0.0005846243788365975,-0.17670271850336158
1747152210.6831615,0.99735,-0.00061,0.12395199999999999,0.0175,0.17500000000000002,0.5950000000000001,-0.4612686349020754,-0.0005846243788365975,-0.17670271850336158
1747152210.6880326,0.997838,-0.001098,0.12322,-0.0175,0.21000000000000002,0.6475000000000001,-0.4612686349020754,-0.0005846243788365975,-0.17670271850336158
1747152210.6928976,0.997594,-0.000366,0.124196,0.0,0.1925,0.5950000000000001,-0.4612686349020754,-0.0005846243788365975,-0.17670271850336158
1747152210.6977727,0.9952759999999999,0.0013419999999999999,0.12505,-0.0175,0.14,0.5775,-0.4612686349020754,-0.008769365682548963,-0.18152586962876352
1747152210.7026474,0.9971059999999999,-0.000488,0.125904,0.0175,0.14,0.525,-0.4662379421221865,-0.008769365682548963,-0.18152586962876352
1747152210.7082326,0.99552,-0.001464,0.123342,-0.035,0.2625,0.7000000000000001,-0.4662379421221865,-0.008769365682548963,-0.18152586962876352
1747152210.7123897,0.997594,-0.000122,0.12285399999999999,0.035,0.22750000000000004,0.6475000000000001,-0.4662379421221865,-0.008769365682548963,-0.18152586962876352
1747152210.7172616,0.99552,-0.000976,0.12383,-0.0175,0.21000000000000002,0.525,-0.4662379421221865,-0.008769365682548963,-0.18152586962876352
1747152210.722258,0.998204,-0.001586,0.12456199999999999,-0.07,0.22750000000000004,0.5950000000000001,-0.4662379421221865,-0.008769365682548963,-0.18152586962876352
1747152210.7270186,0.999424,0.001586,0.123098,-0.12250000000000001,0.2625,0.6475000000000001,-0.4662379421221865,-0.008769365682548963,-0.18152586962876352
1747152210.7318869,0.99674,0.000976,0.124684,-0.12250000000000001,0.28,0.5425000000000001,-0.4662379421221865,-0.008769365682548963,-0.18152586962876352
1747152210.7367547,0.995642,-0.0008539999999999999,0.12285399999999999,-0.12250000000000001,0.35000000000000003,0.6300000000000001,-0.4662379421221865,-0.008769365682548963,-0.18152586962876352
1747152210.741623,0.99857,-0.000244,0.12383,-0.14,0.2625,0.5775,-0.4662379421221865,-0.008769365682548963,-0.18152586962876352
1747152210.7464929,0.997594,0.0008539999999999999,0.123708,-0.15750000000000003,0.31500000000000006,0.6125,-0.45980707395498394,-0.001169248757673195,-0.18284127448114587
1747152210.751368,0.99552,0.000732,0.12444,-0.08750000000000001,0.12250000000000001,0.5075000000000001,-0.45980707395498394,-0.001169248757673195,-0.18284127448114587
1747152210.7562406,0.99857,0.002562,0.125416,-0.21000000000000002,0.36750000000000005,0.6475000000000001,-0.45980707395498394,-0.001169248757673195,-0.18284127448114587
1747152210.761824,0.99796,-0.000122,0.123342,-0.1925,0.29750000000000004,0.6125,-0.45980707395498394,-0.001169248757673195,-0.18284127448114587
1747152210.7659838,0.996618,0.00061,0.12505,-0.1925,0.29750000000000004,0.5775,-0.45980707395498394,-0.001169248757673195,-0.18284127448114587
1747152210.7708519,0.997594,-0.000122,0.122732,-0.07,0.28,0.6125,-0.45980707395498394,-0.001169248757673195,-0.18284127448114587
1747152210.7757251,0.996984,0.0017079999999999999,0.122732,-0.08750000000000001,0.2625,0.5775,-0.45980707395498394,-0.001169248757673195,-0.18284127448114587
1747152210.7805943,0.9971059999999999,0.0013419999999999999,0.125172,-0.14,0.1925,0.5950000000000001,-0.45980707395498394,-0.001169248757673195,-0.18284127448114587
1747152210.7854753,0.997838,0.000366,0.12383,-0.15750000000000003,0.17500000000000002,0.5950000000000001,-0.45980707395498394,-0.001169248757673195,-0.18284127448114587
1747152210.7903428,0.9983259999999999,-0.031232,0.123098,0.0,0.08750000000000001,0.5950000000000001,-0.45980707395498394,-0.001169248757673195,-0.18284127448114587
1747152210.795214,0.998814,0.000488,0.12383,-0.0175,0.052500000000000005,0.56,-0.46243788365974864,-0.00233849751534639,-0.17626425021923414
1747152210.800087,0.998814,0.000122,0.123586,-0.07,0.22750000000000004,0.665,-0.46243788365974864,-0.00233849751534639,-0.17626425021923414
1747152210.8049526,0.99796,0.000122,0.12383,-0.0175,0.17500000000000002,0.5950000000000001,-0.46243788365974864,-0.00233849751534639,-0.17626425021923414
1747152210.8098242,0.9964959999999999,0.000976,0.12505,-0.035,0.21000000000000002,0.5775,-0.46243788365974864,-0.00233849751534639,-0.17626425021923414
1747152210.8154204,0.998448,-0.001098,0.122976,-0.0175,0.21000000000000002,0.56,-0.46243788365974864,-0.00233849751534639,-0.17626425021923414
1747152210.8195689,0.997228,0.001098,0.122976,-0.07,0.2625,0.5775,-0.46243788365974864,-0.00233849751534639,-0.17626425021923414
1747152210.8244345,0.998204,-0.000488,0.126148,-0.07,0.1925,0.5950000000000001,-0.46243788365974864,-0.00233849751534639,-0.17626425021923414
1747152210.82931,0.9983259999999999,0.000976,0.12383,0.0,0.10500000000000001,0.6125,-0.46243788365974864,-0.00233849751534639,-0.17626425021923414
1747152210.8341775,0.9983259999999999,0.000976,0.123342,0.0,0.15750000000000003,0.5950000000000001,-0.46243788365974864,-0.00233849751534639,-0.17626425021923414
1747152210.839054,0.998082,0.00183,0.127368,0.0,0.15750000000000003,0.5775,-0.46243788365974864,0.0008769365682548962,-0.18152586962876352
1747152210.843924,0.99796,0.0,0.122976,-0.035,0.12250000000000001,0.5075000000000001,-0.46243788365974864,0.0008769365682548962,-0.18152586962876352
1747152210.8487923,0.996252,0.000122,0.12395199999999999,-0.0175,0.21000000000000002,0.6825000000000001,-0.46243788365974864,0.0008769365682548962,-0.18152586962876352
1747152210.8536625,0.999424,0.000976,0.124806,0.07,0.1925,0.5775,-0.46243788365974864,0.0008769365682548962,-0.18152586962876352
1747152210.8585358,0.997838,-0.000976,0.124074,0.07,0.14,0.5775,-0.46243788365974864,0.0008769365682548962,-0.18152586962876352
1747152210.8634112,0.997472,0.000122,0.123464,-0.0175,0.1925,0.6300000000000001,-0.46243788365974864,0.0008769365682548962,-0.18152586962876352
1747152210.8690245,0.997838,0.000488,0.124806,0.0,0.15750000000000003,0.5950000000000001,-0.46243788365974864,0.0008769365682548962,-0.18152586962876352
1747152210.8731503,0.9989359999999999,0.0008539999999999999,0.125416,0.07,0.15750000000000003,0.5950000000000001,-0.46243788365974864,0.0008769365682548962,-0.18152586962876352
1747152210.8780234,0.998692,-0.000122,0.125172,-0.08750000000000001,0.17500000000000002,0.5775,-0.46243788365974864,0.0008769365682548962,-0.18152586962876352
1747152210.8829,0.997472,-0.0023179999999999997,0.122976,0.0175,0.1925,0.56,-0.46243788365974864,0.0008769365682548962,-0.18152586962876352
1747152210.8877783,0.996984,0.000976,0.125538,-0.07,0.07,0.5075000000000001,-0.46389944460684013,-0.00029231218941829873,-0.18941829874305757
1747152210.892649,0.996374,0.001098,0.124928,-0.12250000000000001,0.2625,0.7350000000000001,-0.46389944460684013,-0.00029231218941829873,-0.18941829874305757
1747152210.8975208,0.996862,0.000244,0.125172,-0.14,0.29750000000000004,0.6300000000000001,-0.46389944460684013,-0.00029231218941829873,-0.18941829874305757
1747152210.9023933,0.99735,0.000488,0.124928,-0.15750000000000003,0.36750000000000005,0.6125,-0.46389944460684013,-0.00029231218941829873,-0.18941829874305757
1747152210.9072661,0.99857,0.001098,0.122366,-0.17500000000000002,0.31500000000000006,0.6125,-0.46389944460684013,-0.00029231218941829873,-0.18941829874305757
1747152210.9121492,0.996862,0.000732,0.124074,-0.1925,0.24500000000000002,0.5775,-0.46389944460684013,-0.00029231218941829873,-0.18941829874305757
1747152210.917019,0.99857,0.001586,0.12456199999999999,-0.1925,0.28,0.5775,-0.46389944460684013,-0.00029231218941829873,-0.18941829874305757
1747152210.9226038,0.998814,0.001952,0.124928,-0.14,0.24500000000000002,0.6300000000000001,-0.46389944460684013,-0.00029231218941829873,-0.18941829874305757
1747152210.9267476,0.9989359999999999,0.000488,0.124318,-0.21000000000000002,0.22750000000000004,0.6300000000000001,-0.46389944460684013,-0.00029231218941829873,-0.18941829874305757
1747152210.9316206,0.99735,0.000366,0.12322,-0.28,0.2625,0.5775,-0.46389944460684013,-0.00029231218941829873,-0.18941829874305757
1747152210.9364913,0.9971059999999999,-0.0008539999999999999,0.12285399999999999,-0.15750000000000003,0.22750000000000004,0.5075000000000001,-0.4641917567962584,0.00029231218941829873,-0.18766442560654778
1747152210.9413614,0.99613,-0.000122,0.125538,-0.14,0.2625,0.6475000000000001,-0.4641917567962584,0.00029231218941829873,-0.18766442560654778
1747152210.9462266,0.999302,0.001098,0.122488,-0.15750000000000003,0.31500000000000006,0.6125,-0.4641917567962584,0.00029231218941829873,-0.18766442560654778
1747152210.9511075,0.99857,0.000976,0.124074,-0.1925,0.2625,0.6300000000000001,-0.4641917567962584,0.00029231218941829873,-0.18766442560654778
1747152210.9559824,0.9983259999999999,-0.00122,0.12444,-0.17500000000000002,0.22750000000000004,0.5775,-0.4641917567962584,0.00029231218941829873,-0.18766442560654778
1747152210.9608479,0.99491,-0.00244,0.12505,-0.08750000000000001,0.07,0.5075000000000001,-0.4641917567962584,0.00029231218941829873,-0.18766442560654778
1747152210.965719,0.996862,0.000976,0.12444,-0.08750000000000001,0.10500000000000001,0.525,-0.4641917567962584,0.00029231218941829873,-0.18766442560654778
1747152210.970593,0.9977159999999999,0.0008539999999999999,0.12395199999999999,-0.07,0.28,0.7175,-0.4641917567962584,0.00029231218941829873,-0.18766442560654778
1747152210.9761968,0.9971059999999999,-0.00061,0.124074,-0.07,0.22750000000000004,0.665,-0.4641917567962584,0.00029231218941829873,-0.18766442560654778
1747152210.980335,0.997838,0.000366,0.124806,-0.08750000000000001,0.24500000000000002,0.665,-0.4630225080385852,-0.0070154925460391695,-0.1826951183864367
1747152210.9852064,0.999302,0.00183,0.125782,-0.035,0.08750000000000001,0.5425000000000001,-0.4630225080385852,-0.0070154925460391695,-0.1826951183864367
1747152210.9900746,0.996374,0.001586,0.124196,-0.035,0.21000000000000002,0.6825000000000001,-0.4630225080385852,-0.0070154925460391695,-0.1826951183864367
1747152210.9949534,0.998204,0.00122,0.12444,0.0175,0.1925,0.6475000000000001,-0.4630225080385852,-0.0070154925460391695,-0.1826951183864367
1747152210.9998245,0.9971059999999999,-0.000488,0.124684,0.0,0.21000000000000002,0.6300000000000001,-0.4630225080385852,-0.0070154925460391695,-0.1826951183864367
1747152211.0046952,0.996252,0.000122,0.12383,-4.445,0.1925,0.5950000000000001,-0.4630225080385852,-0.0070154925460391695,-0.1826951183864367
1747152211.009566,0.998082,-0.000976,0.12444,-0.052500000000000005,0.15750000000000003,0.6300000000000001,-0.4630225080385852,-0.0070154925460391695,-0.1826951183864367
1747152211.014435,0.99796,0.0008539999999999999,0.122976,-0.0175,0.12250000000000001,0.6125,-0.4630225080385852,-0.0070154925460391695,-0.1826951183864367
1747152211.0193074,0.996252,0.0,0.123342,0.035,0.17500000000000002,0.56,-0.4630225080385852,-0.0070154925460391695,-0.1826951183864367
1747152211.0241833,0.9977159999999999,-0.000244,0.124196,-0.052500000000000005,0.12250000000000001,0.5425000000000001,-0.4630225080385852,-0.0070154925460391695,-0.1826951183864367
1747152211.0297885,0.997228,0.000366,0.12395199999999999,-0.0175,0.10500000000000001,0.525,-0.46185325928091203,-0.010523238819058756,-0.18722595732242034
1747152211.0339348,0.996984,0.0,0.123098,-0.035,0.1925,0.6475000000000001,-0.46185325928091203,-0.010523238819058756,-0.18722595732242034
1747152211.0388086,0.998448,0.000976,0.124196,-0.12250000000000001,0.2625,0.5950000000000001,-0.46185325928091203,-0.010523238819058756,-0.18722595732242034
1747152211.0436828,0.998082,0.001464,0.124684,-0.17500000000000002,0.29750000000000004,0.5775,-0.46185325928091203,-0.010523238819058756,-0.18722595732242034
1747152211.0485582,0.99613,0.0008539999999999999,0.124318,-0.1925,0.31500000000000006,0.5950000000000001,-0.46185325928091203,-0.010523238819058756,-0.18722595732242034
1747152211.053427,0.9977159999999999,0.0008539999999999999,0.12444,-0.10500000000000001,0.21000000000000002,0.5775,-0.46185325928091203,-0.010523238819058756,-0.18722595732242034
1747152211.058295,0.997228,0.000732,0.12383,-0.10500000000000001,0.1925,0.6125,-0.46185325928091203,-0.010523238819058756,-0.18722595732242034
1747152211.0631695,0.998204,-0.00061,0.12395199999999999,-0.12250000000000001,0.22750000000000004,0.6475000000000001,-0.46185325928091203,-0.010523238819058756,-0.18722595732242034
1747152211.0680344,0.9971059999999999,0.000244,0.123586,-0.10500000000000001,0.2625,0.6300000000000001,-0.46185325928091203,-0.010523238819058756,-0.18722595732242034
1747152211.072906,0.997838,0.000122,0.125538,-0.10500000000000001,0.24500000000000002,0.6300000000000001,-0.45834551300789245,-0.003215434083601286,-0.1847413037123648
1747152211.0777798,0.99735,0.000488,0.125416,-0.1925,0.15750000000000003,0.5075000000000001,-0.45834551300789245,-0.003215434083601286,-0.1847413037123648
1747152211.0833752,0.996374,0.001586,0.122976,-0.24500000000000002,0.4025,0.665,-0.45834551300789245,-0.003215434083601286,-0.1847413037123648
1747152211.0875359,0.996374,0.0013419999999999999,0.123342,-0.1925,0.35000000000000003,0.6125,-0.45834551300789245,-0.003215434083601286,-0.1847413037123648
1747152211.0924032,0.997838,0.0008539999999999999,0.124074,-0.15750000000000003,0.24500000000000002,0.6125,-0.45834551300789245,-0.003215434083601286,-0.1847413037123648
1747152211.0972707,0.998082,-0.000488,0.125782,0.035,0.15750000000000003,0.5950000000000001,-0.45834551300789245,-0.003215434083601286,-0.1847413037123648
1747152211.1021419,0.9971059999999999,-0.000366,0.12444,0.0,0.1925,0.5775,-0.45834551300789245,-0.003215434083601286,-0.1847413037123648
1747152211.1070213,0.9977159999999999,-0.000244,0.122732,-0.035,0.10500000000000001,0.56,-0.45834551300789245,-0.003215434083601286,-0.1847413037123648
1747152211.1119576,0.998692,0.001464,0.12566,0.0,0.1925,0.5775,-0.45834551300789245,-0.003215434083601286,-0.1847413037123648
1747152211.1168685,0.9983259999999999,0.000976,0.124928,-4.41,0.21000000000000002,0.5775,-0.45834551300789245,-0.003215434083601286,-0.1847413037123648
1747152211.12174,0.997472,0.0008539999999999999,0.124196,0.0,0.052500000000000005,0.5950000000000001,-0.4609763227126571,-0.0008769365682548962,-0.18035662087109033
1747152211.1266124,0.996862,0.0017079999999999999,0.12395199999999999,-0.035,0.17500000000000002,0.665,-0.4609763227126571,-0.0008769365682548962,-0.18035662087109033
1747152211.1315515,0.99674,-0.000244,0.123708,-0.07,0.24500000000000002,0.6300000000000001,-0.4609763227126571,-0.0008769365682548962,-0.18035662087109033
1747152211.1371377,0.996984,-0.001098,0.122488,-0.14,0.22750000000000004,0.5775,-0.4609763227126571,-0.0008769365682548962,-0.18035662087109033
1747152211.1412354,0.99857,0.000488,0.124318,-0.07,0.17500000000000002,0.6125,-0.4609763227126571,-0.0008769365682548962,-0.18035662087109033
1747152211.1461103,0.9958859999999999,-0.000122,0.122976,-0.12250000000000001,0.2625,0.6300000000000001,-0.4609763227126571,-0.0008769365682548962,-0.18035662087109033
1747152211.150982,0.9977159999999999,-0.000122,0.124684,-0.10500000000000001,0.28,0.6125,-0.4609763227126571,-0.0008769365682548962,-0.18035662087109033
1747152211.1558526,0.99796,-0.00061,0.125294,-0.12250000000000001,0.24500000000000002,0.5775,-0.4609763227126571,-0.0008769365682548962,-0.18035662087109033
1747152211.1607223,0.996008,0.00122,0.126148,-0.14,0.29750000000000004,0.5775,-0.4609763227126571,-0.0008769365682548962,-0.18035662087109033
1747152211.165591,0.999058,0.001586,0.123586,-0.12250000000000001,0.28,0.5775,-0.4609763227126571,-0.0008769365682548962,-0.18035662087109033
1747152211.1704576,0.999912,0.000488,0.12322,-0.12250000000000001,0.1925,0.525,-0.4659456299327682,-0.006138555977784273,-0.18313358667056417
1747152211.175333,0.9977159999999999,-0.0017079999999999999,0.123464,-0.14,0.3325,0.6125,-0.4659456299327682,-0.006138555977784273,-0.18313358667056417
1747152211.1802008,0.996862,0.001464,0.12383,-0.22750000000000004,0.28,0.5950000000000001,-0.4659456299327682,-0.006138555977784273,-0.18313358667056417
1747152211.1850727,0.9971059999999999,0.001464,0.124684,-0.17500000000000002,0.24500000000000002,0.56,-0.4659456299327682,-0.006138555977784273,-0.18313358667056417
1747152211.1906877,0.996618,-0.001098,0.12322,-0.17500000000000002,0.31500000000000006,0.56,-0.4659456299327682,-0.006138555977784273,-0.18313358667056417
1747152211.1948347,0.998082,0.002074,0.124928,-0.10500000000000001,0.28,0.5950000000000001,-0.4659456299327682,-0.006138555977784273,-0.18313358667056417
1747152211.1996832,0.9971059999999999,0.0008539999999999999,0.12383,0.035,0.12250000000000001,0.5775,-0.4659456299327682,-0.006138555977784273,-0.18313358667056417
1747152211.2045548,0.9983259999999999,-0.000122,0.123098,0.035,0.12250000000000001,0.5775,-0.4659456299327682,-0.006138555977784273,-0.18313358667056417
1747152211.2094302,0.998448,0.00061,0.125172,-0.17500000000000002,0.31500000000000006,0.6475000000000001,-0.4659456299327682,-0.006138555977784273,-0.18313358667056417
1747152211.2143025,0.998082,0.000732,0.12444,-0.15750000000000003,0.22750000000000004,0.56,-0.45834551300789245,0.0008769365682548962,-0.18313358667056417
1747152211.219172,0.99735,-0.000366,0.12383,-0.17500000000000002,0.15750000000000003,0.5075000000000001,-0.45834551300789245,0.0008769365682548962,-0.18313358667056417
1747152211.2240458,0.997838,0.000732,0.12383,-0.035,0.22750000000000004,0.6125,-0.45834551300789245,0.0008769365682548962,-0.18313358667056417
1747152211.2289119,0.996984,0.000732,0.12688,-0.08750000000000001,0.17500000000000002,0.6125,-0.45834551300789245,0.0008769365682548962,-0.18313358667056417
1747152211.2337933,0.998814,0.002196,0.123586,-0.0175,0.24500000000000002,0.6125,-0.45834551300789245,0.0008769365682548962,-0.18313358667056417
1747152211.2386644,0.99796,0.000976,0.124074,0.035,0.15750000000000003,0.6300000000000001,-0.45834551300789245,0.0008769365682548962,-0.18313358667056417
1747152211.2501757,0.99735,0.001098,0.123098,0.035,0.15750000000000003,0.6475000000000001,-0.45834551300789245,0.0008769365682548962,-0.18313358667056417
1747152211.253103,0.996618,0.002074,0.125294,-0.08750000000000001,0.21000000000000002,0.5950000000000001,-0.45834551300789245,0.0008769365682548962,-0.18313358667056417
1747152211.2579908,0.998448,0.0,0.122122,-0.21000000000000002,0.2625,0.5775,-0.45834551300789245,0.0008769365682548962,-0.18313358667056417
1747152211.262858,0.99796,-0.000244,0.124806,-0.035,0.14,0.49000000000000005,-0.4565916398713826,-0.008769365682548963,-0.1850336159017831
1747152211.2677352,0.997594,-0.000366,0.122976,-0.10500000000000001,0.21000000000000002,0.6300000000000001,-0.4565916398713826,-0.008769365682548963,-0.1850336159017831
1747152211.2726073,0.9995459999999999,-0.000976,0.123098,-0.052500000000000005,0.17500000000000002,0.5775,-0.4565916398713826,-0.008769365682548963,-0.1850336159017831
1747152211.277486,0.996618,0.00122,0.125294,0.0,0.052500000000000005,0.5075000000000001,-0.4565916398713826,-0.008769365682548963,-0.1850336159017831
1747152211.2823598,0.998204,0.001098,0.12456199999999999,0.0,0.21000000000000002,0.7525000000000001,-0.4565916398713826,-0.008769365682548963,-0.1850336159017831
1747152211.2872381,0.998814,0.002196,0.12566,0.035,0.24500000000000002,0.6475000000000001,-0.4565916398713826,-0.008769365682548963,-0.1850336159017831
1747152211.2921114,0.997838,-0.00061,0.125294,-0.0175,0.1925,0.6125,-0.4565916398713826,-0.008769365682548963,-0.1850336159017831
1747152211.2969823,0.9971059999999999,-0.000488,0.122732,-0.08750000000000001,0.2625,0.6125,-0.4565916398713826,-0.008769365682548963,-0.1850336159017831
1747152211.3048012,0.996618,0.001952,0.12566,-0.1925,0.24500000000000002,0.5950000000000001,-0.4565916398713826,-0.008769365682548963,-0.1850336159017831
1747152211.3078134,0.997594,0.001098,0.124074,-0.1925,0.24500000000000002,0.5950000000000001,-0.45834551300789245,-0.0029231218941829875,-0.18342589885998245
1747152211.3126807,0.9989359999999999,0.00061,0.121878,-0.0175,0.12250000000000001,0.49000000000000005,-0.45834551300789245,-0.0029231218941829875,-0.18342589885998245
1747152211.3175542,0.997838,0.000244,0.12505,-0.052500000000000005,0.28,0.7000000000000001,-0.45834551300789245,-0.0029231218941829875,-0.18342589885998245
1747152211.322428,0.998082,-0.000122,0.12383,-0.07,0.2625,0.5775,-0.45834551300789245,-0.0029231218941829875,-0.18342589885998245
1747152211.3273008,0.995398,0.0013419999999999999,0.12078,-0.07,0.14,0.5950000000000001,-0.45834551300789245,-0.0029231218941829875,-0.18342589885998245
1747152211.332174,0.998204,0.001464,0.12322,0.0175,0.15750000000000003,0.6125,-0.45834551300789245,-0.0029231218941829875,-0.18342589885998245
1747152211.3370583,0.997594,0.000488,0.12261,0.035,0.08750000000000001,0.5425000000000001,-0.45834551300789245,-0.0029231218941829875,-0.18342589885998245
1747152211.3419318,0.99857,0.000488,0.12163399999999999,-0.14,0.1925,0.6300000000000001,-0.45834551300789245,-0.0029231218941829875,-0.18342589885998245
1747152211.3467996,0.999058,0.000732,0.12566,-0.17500000000000002,0.24500000000000002,0.5950000000000001,-0.45834551300789245,-0.0029231218941829875,-0.18342589885998245
1747152211.351681,0.998082,0.0034159999999999998,0.124684,-0.14,0.2625,0.5950000000000001,-0.45834551300789245,-0.0029231218941829875,-0.18342589885998245
1747152211.3587697,0.997594,0.0013419999999999999,0.124074,-0.15750000000000003,0.1925,0.5425000000000001,-0.467699503069278,0.0005846243788365975,-0.1856182402806197
1747152211.3618138,0.997838,0.001952,0.124196,-0.052500000000000005,0.2625,0.6825000000000001,-0.467699503069278,0.0005846243788365975,-0.1856182402806197
1747152211.3666818,0.99613,0.0023179999999999997,0.123464,-0.052500000000000005,0.12250000000000001,0.5425000000000001,-0.467699503069278,0.0005846243788365975,-0.1856182402806197
1747152211.3715575,0.997594,0.00122,0.124928,-0.15750000000000003,0.29750000000000004,0.5775,-0.467699503069278,0.0005846243788365975,-0.1856182402806197
1747152211.37643,1.000156,0.000732,0.124928,-0.17500000000000002,0.17500000000000002,0.49000000000000005,-0.467699503069278,0.0005846243788365975,-0.1856182402806197
1747152211.3813028,0.998082,-0.000366,0.123708,-0.15750000000000003,0.29750000000000004,0.6825000000000001,-0.467699503069278,0.0005846243788365975,-0.1856182402806197
1747152211.3861804,0.9977159999999999,0.000732,0.12383,-0.07,0.29750000000000004,0.6475000000000001,-0.467699503069278,0.0005846243788365975,-0.1856182402806197
1747152211.391053,0.9983259999999999,0.000366,0.12383,-0.035,0.21000000000000002,0.5775,-0.467699503069278,0.0005846243788365975,-0.1856182402806197
1747152211.3959339,0.997838,-0.000488,0.125904,0.035,0.1925,0.6125,-0.467699503069278,0.0005846243788365975,-0.1856182402806197
1747152211.4008026,0.9983259999999999,-0.001464,0.123586,0.052500000000000005,0.14,0.5775,-0.4609763227126571,-0.006723180356620871,-0.18634902075416546
1747152211.405681,1.000156,-0.000366,0.12322,-0.052500000000000005,0.14,0.56,-0.4609763227126571,-0.006723180356620871,-0.18634902075416546
1747152211.4118361,0.99796,0.000122,0.123586,-0.08750000000000001,0.24500000000000002,0.6125,-0.4609763227126571,-0.006723180356620871,-0.18634902075416546
1747152211.4154305,0.997472,-0.000122,0.124074,-0.08750000000000001,0.24500000000000002,0.6125,-0.4609763227126571,-0.006723180356620871,-0.18634902075416546
1747152211.4202988,0.998082,-0.000366,0.12566,-0.14,0.1925,0.56,-0.4609763227126571,-0.006723180356620871,-0.18634902075416546
1747152211.425175,0.998082,0.000976,0.124074,-0.17500000000000002,0.2625,0.5775,-0.4609763227126571,-0.006723180356620871,-0.18634902075416546
1747152211.4300508,0.998814,0.000244,0.124928,-0.17500000000000002,0.28,0.5950000000000001,-0.4609763227126571,-0.006723180356620871,-0.18634902075416546
1747152211.4349227,0.99857,0.00122,0.124684,-0.17500000000000002,0.21000000000000002,0.6125,-0.4609763227126571,-0.006723180356620871,-0.18634902075416546
1747152211.439799,0.998814,-0.001586,0.124806,-0.07,0.2625,0.6125,-0.4609763227126571,-0.006723180356620871,-0.18634902075416546
1747152211.4446704,0.996618,-0.00122,0.155306,-0.0175,0.22750000000000004,0.5775,-0.4609763227126571,-0.006723180356620871,-0.18634902075416546
1747152211.4495504,0.998082,0.0017079999999999999,0.123708,-0.08750000000000001,0.12250000000000001,0.5075000000000001,-0.4580532008184741,0.0017538731365097924,-0.18956445483776674
1747152211.4544225,0.998204,0.000732,0.12456199999999999,-0.035,0.21000000000000002,0.7000000000000001,-0.4580532008184741,0.0017538731365097924,-0.18956445483776674
1747152211.459298,0.996618,-0.001464,0.12322,0.0175,0.24500000000000002,0.6125,-0.4580532008184741,0.0017538731365097924,-0.18956445483776674
1747152211.4648967,0.998204,-0.000366,0.124318,-0.08750000000000001,0.1925,0.5775,-0.4580532008184741,0.0017538731365097924,-0.18956445483776674
1747152211.4690447,0.997594,0.0013419999999999999,0.12395199999999999,-0.035,0.24500000000000002,0.6300000000000001,-0.4580532008184741,0.0017538731365097924,-0.18956445483776674
1747152211.4739168,0.998448,0.000122,0.124684,-0.052500000000000005,0.1925,0.525,-0.4580532008184741,0.0017538731365097924,-0.18956445483776674
1747152211.478792,0.9971059999999999,0.00122,0.123586,-0.17500000000000002,0.21000000000000002,0.6475000000000001,-0.4580532008184741,0.0017538731365097924,-0.18956445483776674
1747152211.4836667,0.997472,0.00183,0.12505,-0.1925,0.24500000000000002,0.6125,-0.4580532008184741,0.0017538731365097924,-0.18956445483776674
1747152211.4885418,0.999424,0.0013419999999999999,0.124196,-0.1925,0.07,0.5425000000000001,-0.4580532008184741,0.0017538731365097924,-0.18956445483776674
1747152211.493413,0.998448,0.000732,0.12322,-0.14,0.15750000000000003,0.7175,-0.4580532008184741,0.0017538731365097924,-0.18956445483776674
1747152211.4982874,0.998204,-0.000244,0.12395199999999999,-0.10500000000000001,0.22750000000000004,0.5775,-0.46185325928091203,0.00029231218941829873,-0.18181818181818182
1747152211.5031695,0.9958859999999999,0.000122,0.122732,-0.14,0.28,0.6475000000000001,-0.46185325928091203,0.00029231218941829873,-0.18181818181818182
1747152211.5080411,0.999424,0.00061,0.126026,-0.052500000000000005,0.21000000000000002,0.5950000000000001,-0.46185325928091203,0.00029231218941829873,-0.18181818181818182
1747152211.5129182,0.99613,0.000122,0.12322,-0.052500000000000005,0.17500000000000002,0.5950000000000001,-0.46185325928091203,0.00029231218941829873,-0.18181818181818182
1747152211.5185094,0.996984,0.000732,0.12383,-0.07,0.15750000000000003,0.5775,-0.46185325928091203,0.00029231218941829873,-0.18181818181818182
1747152211.5226645,0.9989359999999999,0.0008539999999999999,0.125538,-0.07,0.21000000000000002,0.5950000000000001,-0.46185325928091203,0.00029231218941829873,-0.18181818181818182
1747152211.527542,0.99735,0.002074,0.123586,-0.035,0.17500000000000002,0.5775,-0.46185325928091203,0.00029231218941829873,-0.18181818181818182
1747152211.5324163,0.9977159999999999,-0.000122,0.123708,-0.10500000000000001,0.24500000000000002,0.6125,-0.46185325928091203,0.00029231218941829873,-0.18181818181818182
1747152211.5372882,0.996862,0.0,0.126514,-0.1925,0.31500000000000006,0.5950000000000001,-0.46185325928091203,0.00029231218941829873,-0.18181818181818182
1747152211.5421684,0.99796,-0.000488,0.123464,-0.10500000000000001,0.24500000000000002,0.5425000000000001,-0.45483776673487286,-0.00029231218941829873,-0.18751826951183864
1747152211.5470426,0.996252,-0.001098,0.12322,-0.1925,0.15750000000000003,0.6300000000000001,-0.45483776673487286,-0.00029231218941829873,-0.18751826951183864
1747152211.5519192,0.997594,0.000488,0.124318,-0.035,0.21000000000000002,0.5950000000000001,-0.45483776673487286,-0.00029231218941829873,-0.18751826951183864
1747152211.5567884,0.997838,-0.000122,0.123464,-0.0175,0.17500000000000002,0.5950000000000001,-0.45483776673487286,-0.00029231218941829873,-0.18751826951183864
1747152211.561663,0.997228,0.000488,0.124684,0.0,0.1925,0.6125,-0.45483776673487286,-0.00029231218941829873,-0.18751826951183864
1747152211.566544,0.995642,-0.000976,0.124318,-0.0175,0.12250000000000001,0.56,-0.45483776673487286,-0.00029231218941829873,-0.18751826951183864
1747152211.5721493,0.9983259999999999,-0.001098,0.124074,0.0,0.17500000000000002,0.6300000000000001,-0.45483776673487286,-0.00029231218941829873,-0.18751826951183864
1747152211.5762959,0.99613,-0.000732,0.12285399999999999,-0.0175,0.21000000000000002,0.6300000000000001,-0.45483776673487286,-0.00029231218941829873,-0.18751826951183864
1747152211.5811708,0.999302,0.0013419999999999999,0.123586,-0.08750000000000001,0.21000000000000002,0.665,-0.45483776673487286,-0.00029231218941829873,-0.18751826951183864
1747152211.5860434,0.9983259999999999,0.000366,0.125416,-0.17500000000000002,0.28,0.5775,-0.45483776673487286,-0.00029231218941829873,-0.18751826951183864
1747152211.5909197,0.99613,-0.000122,0.124928,-0.14,0.22750000000000004,0.5425000000000001,-0.45717626425021923,0.001169248757673195,-0.19014907921660334
1747152211.5957944,0.998448,-0.00183,0.122732,-0.15750000000000003,0.24500000000000002,0.6475000000000001,-0.45717626425021923,0.001169248757673195,-0.19014907921660334
1747152211.6006718,0.997594,-0.000122,0.123342,-0.0175,0.24500000000000002,0.56,-0.45717626425021923,0.001169248757673195,-0.19014907921660334
1747152211.6055412,0.998448,-0.001098,0.124196,0.0175,0.17500000000000002,0.6125,-0.45717626425021923,0.001169248757673195,-0.19014907921660334
1747152211.6104183,0.997838,0.0,0.125172,0.0,0.08750000000000001,0.49000000000000005,-0.45717626425021923,0.001169248757673195,-0.19014907921660334
1747152211.6152935,0.99735,0.00061,0.12383,-0.052500000000000005,0.08750000000000001,0.5950000000000001,-0.45717626425021923,0.001169248757673195,-0.19014907921660334
1747152211.620169,0.9983259999999999,-0.001098,0.125294,-0.052500000000000005,0.21000000000000002,0.6825000000000001,-0.45717626425021923,0.001169248757673195,-0.19014907921660334
1747152211.6257687,0.998204,0.000244,0.125538,-0.07,0.24500000000000002,0.6125,-0.45717626425021923,0.001169248757673195,-0.19014907921660334
1747152211.629921,0.997594,-0.000244,0.123464,-0.035,0.21000000000000002,0.6125,-0.45717626425021923,0.001169248757673195,-0.19014907921660334
1747152211.6347952,0.99796,0.000488,0.122976,-0.08750000000000001,0.1925,0.5775,-0.45834551300789245,-0.007307804735457469,-0.18693364513300204
1747152211.6396737,0.996618,0.00061,0.124684,-0.15750000000000003,0.24500000000000002,0.5425000000000001,-0.45834551300789245,-0.007307804735457469,-0.18693364513300204
1747152211.6445527,0.998082,-0.000122,0.124196,-0.10500000000000001,0.22750000000000004,0.665,-0.45834551300789245,-0.007307804735457469,-0.18693364513300204
1747152211.6494212,0.998204,-0.0017079999999999999,0.123098,-0.035,0.22750000000000004,0.6125,-0.45834551300789245,-0.007307804735457469,-0.18693364513300204
1747152211.6542962,0.9964959999999999,-0.0008539999999999999,0.122732,-0.035,0.15750000000000003,0.6125,-0.45834551300789245,-0.007307804735457469,-0.18693364513300204
1747152211.6591702,0.99674,0.000488,0.124196,-0.07,0.15750000000000003,0.5950000000000001,-0.45834551300789245,-0.007307804735457469,-0.18693364513300204
1747152211.664049,0.998692,0.0008539999999999999,0.12505,0.0,0.08750000000000001,0.5950000000000001,-0.45834551300789245,-0.007307804735457469,-0.18693364513300204
1747152211.6689231,0.997594,0.000244,0.12444,-0.0175,0.08750000000000001,0.5950000000000001,-0.45834551300789245,-0.007307804735457469,-0.18693364513300204
1747152211.673798,0.999058,0.000488,0.12383,-0.12250000000000001,0.24500000000000002,0.6475000000000001,-0.45834551300789245,-0.007307804735457469,-0.18693364513300204
1747152211.6793895,0.997228,-0.000244,0.124684,-0.12250000000000001,0.28,0.6475000000000001,-0.45834551300789245,-0.007307804735457469,-0.18693364513300204
1747152211.6835485,0.998204,-0.000244,0.124318,-0.08750000000000001,0.12250000000000001,0.525,-0.4682841274481146,-0.007892429114294067,-0.1832797427652733
1747152211.6884234,0.998692,0.0,0.124684,-0.12250000000000001,0.17500000000000002,0.6475000000000001,-0.4682841274481146,-0.007892429114294067,-0.1832797427652733
1747152211.6932964,0.99857,-0.00122,0.125416,-0.0175,0.2625,0.6125,-0.4682841274481146,-0.007892429114294067,-0.1832797427652733
1747152211.6981719,0.998204,0.000122,0.123708,0.0,0.21000000000000002,0.56,-0.4682841274481146,-0.007892429114294067,-0.1832797427652733
1747152211.703046,0.99735,-0.0008539999999999999,0.122122,-0.0175,0.17500000000000002,0.6300000000000001,-0.4682841274481146,-0.007892429114294067,-0.1832797427652733
1747152211.707925,0.997228,0.001586,0.124196,-0.052500000000000005,0.21000000000000002,0.5950000000000001,-0.4682841274481146,-0.007892429114294067,-0.1832797427652733
1747152211.7127814,0.9977159999999999,0.001098,0.124196,0.0,0.14,0.5775,-0.4682841274481146,-0.007892429114294067,-0.1832797427652733
1747152211.7176583,0.9983259999999999,-0.00183,0.123708,0.0,0.14,0.6300000000000001,-0.4682841274481146,-0.007892429114294067,-0.1832797427652733
1747152211.722553,0.996374,0.00183,0.125294,-0.035,0.21000000000000002,0.5950000000000001,-0.4682841274481146,-0.007892429114294067,-0.1832797427652733
1747152211.7274234,0.997472,-0.00061,0.12395199999999999,0.0,0.1925,0.6125,-0.4682841274481146,-0.007892429114294067,-0.1832797427652733
1747152211.733037,0.9964959999999999,0.000732,0.12395199999999999,-0.08750000000000001,0.17500000000000002,0.56,-0.4621455714703303,-0.00233849751534639,-0.17641040631394328
1747152211.7371554,0.997594,-0.000366,0.125538,-0.12250000000000001,0.28,0.665,-0.4621455714703303,-0.00233849751534639,-0.17641040631394328
1747152211.7420256,0.9971059999999999,-0.000244,0.123098,-0.07,0.17500000000000002,0.56,-0.4621455714703303,-0.00233849751534639,-0.17641040631394328
1747152211.746901,0.99857,0.000732,0.124928,-0.21000000000000002,0.28,0.5425000000000001,-0.4621455714703303,-0.00233849751534639,-0.17641040631394328
1747152211.7517729,0.998692,-0.000122,0.124806,-0.14,0.22750000000000004,0.525,-0.4621455714703303,-0.00233849751534639,-0.17641040631394328
1747152211.7566426,0.99918,-0.000488,0.123342,-0.21000000000000002,0.31500000000000006,0.6300000000000001,-0.4621455714703303,-0.00233849751534639,-0.17641040631394328
1747152211.7615125,0.99735,-0.000976,0.123708,-0.12250000000000001,0.24500000000000002,0.6125,-0.4621455714703303,-0.00233849751534639,-0.17641040631394328
1747152211.7663875,0.9977159999999999,0.00061,0.125294,-0.1925,0.21000000000000002,0.5775,-0.4621455714703303,-0.00233849751534639,-0.17641040631394328
1747152211.771261,0.997228,0.000366,0.12322,-0.15750000000000003,0.2625,0.5775,-0.4621455714703303,-0.00233849751534639,-0.17641040631394328
1747152211.7761462,0.996618,0.000488,0.123342,-0.1925,0.2625,0.5950000000000001,-0.45688395206080096,-0.005553931598947676,-0.182987430575855
1747152211.7810025,0.995764,-0.0017079999999999999,0.12456199999999999,0.0,0.21000000000000002,0.665,-0.45688395206080096,-0.005553931598947676,-0.182987430575855
1747152211.7865932,0.999302,0.00122,0.12456199999999999,-0.10500000000000001,0.2625,0.56,-0.45688395206080096,-0.005553931598947676,-0.182987430575855
1747152211.7907941,0.999302,0.00122,0.12322,-0.12250000000000001,0.28,0.5775,-0.45688395206080096,-0.005553931598947676,-0.182987430575855
1747152211.795668,0.998814,-0.000244,0.124318,-0.15750000000000003,0.22750000000000004,0.6125,-0.45688395206080096,-0.005553931598947676,-0.182987430575855
1747152211.800538,0.99857,0.000366,0.123586,-0.07,0.21000000000000002,0.5950000000000001,-0.45688395206080096,-0.005553931598947676,-0.182987430575855
1747152211.8054092,0.996984,-0.002196,0.12285399999999999,-0.035,0.14,0.56,-0.45688395206080096,-0.005553931598947676,-0.182987430575855
1747152211.8102846,0.996374,0.000732,0.123098,-0.052500000000000005,0.15750000000000003,0.5950000000000001,-0.45688395206080096,-0.005553931598947676,-0.182987430575855
1747152211.8151586,0.99735,-0.000244,0.12566,0.0,0.14,0.525,-0.45688395206080096,-0.005553931598947676,-0.182987430575855
1747152211.8200288,0.997838,-0.00122,0.12285399999999999,0.0,0.17500000000000002,0.6300000000000001,-0.45688395206080096,-0.005553931598947676,-0.182987430575855
1747152211.824901,0.997594,-0.000732,0.12224399999999999,-0.035,0.17500000000000002,0.525,-0.4636071324174218,-0.008184741303712365,-0.1853259280912014
1747152211.8297696,0.998448,0.00061,0.123708,-0.035,0.21000000000000002,0.5950000000000001,-0.4636071324174218,-0.008184741303712365,-0.1853259280912014
1747152211.8346453,0.99735,0.0,0.124196,-0.052500000000000005,0.15750000000000003,0.6125,-0.4636071324174218,-0.008184741303712365,-0.1853259280912014
1747152211.8402312,0.9977159999999999,-0.00122,0.12566,0.0,0.17500000000000002,0.5950000000000001,-0.4636071324174218,-0.008184741303712365,-0.1853259280912014
1747152211.8443933,0.996862,0.000976,0.12285399999999999,0.0175,0.14,0.6125,-0.4636071324174218,-0.008184741303712365,-0.1853259280912014
1747152211.8492575,0.999302,0.000488,0.124928,0.0175,0.15750000000000003,0.5950000000000001,-0.4636071324174218,-0.008184741303712365,-0.1853259280912014
1747152211.854132,0.996862,0.000366,0.124928,-0.035,0.22750000000000004,0.6125,-0.4636071324174218,-0.008184741303712365,-0.1853259280912014
1747152211.8589995,0.998082,-0.001586,0.123464,0.035,0.12250000000000001,0.5950000000000001,-0.4636071324174218,-0.008184741303712365,-0.1853259280912014
1747152211.8638823,0.998692,0.0,0.12444,0.0,0.1925,0.5950000000000001,-0.4636071324174218,-0.008184741303712365,-0.1853259280912014
1747152211.8687453,0.996252,-0.000244,0.123464,-0.07,0.22750000000000004,0.6125,-0.4606840105232388,-0.006430868167202572,-0.1908798596901491
1747152211.8736188,0.9983259999999999,-0.000366,0.123342,-0.14,0.1925,0.56,-0.4606840105232388,-0.006430868167202572,-0.1908798596901491
1747152211.878492,0.996984,-0.000122,0.122732,-0.052500000000000005,0.22750000000000004,0.6300000000000001,-0.4606840105232388,-0.006430868167202572,-0.1908798596901491
1747152211.8833647,0.998082,0.00122,0.12395199999999999,-0.12250000000000001,0.28,0.6125,-0.4606840105232388,-0.006430868167202572,-0.1908798596901491
1747152211.8882372,0.998448,0.00122,0.125172,-0.12250000000000001,0.28,0.5950000000000001,-0.4606840105232388,-0.006430868167202572,-0.1908798596901491
1747152211.893824,0.99796,-0.00183,0.123586,-0.15750000000000003,0.28,0.6125,-0.4606840105232388,-0.006430868167202572,-0.1908798596901491
1747152211.897981,0.996008,-0.00183,0.123586,-0.07,0.2625,0.5950000000000001,-0.4606840105232388,-0.006430868167202572,-0.1908798596901491
1747152211.9028563,0.998692,0.000976,0.12383,-0.10500000000000001,0.22750000000000004,0.6125,-0.4606840105232388,-0.006430868167202572,-0.1908798596901491
1747152211.9077263,0.997838,-0.000244,0.124318,-0.10500000000000001,0.22750000000000004,0.5775,-0.4606840105232388,-0.006430868167202572,-0.1908798596901491
1747152211.9125967,0.9977159999999999,0.0,0.124806,-0.14,0.28,0.6300000000000001,-0.4606840105232388,-0.006430868167202572,-0.1908798596901491
1747152211.9174712,0.996618,-0.000366,0.123708,-0.10500000000000001,0.2625,0.5425000000000001,-0.4621455714703303,-0.0017538731365097924,-0.18313358667056417
1747152211.9223404,0.997594,0.0,0.12566,-0.10500000000000001,0.24500000000000002,0.6475000000000001,-0.4621455714703303,-0.0017538731365097924,-0.18313358667056417
1747152211.9272134,0.9952759999999999,-0.000366,0.124074,-0.10500000000000001,0.24500000000000002,0.6475000000000001,-0.4621455714703303,-0.0017538731365097924,-0.18313358667056417
1747152211.9320881,0.99674,0.002074,0.125172,-0.12250000000000001,0.28,0.6300000000000001,-0.4621455714703303,-0.0017538731365097924,-0.18313358667056417
1747152211.9369552,0.997472,0.001464,0.124074,-0.12250000000000001,0.22750000000000004,0.6125,-0.4621455714703303,-0.0017538731365097924,-0.18313358667056417
1747152211.9418302,0.997472,0.000122,0.122976,-0.052500000000000005,0.15750000000000003,0.56,-0.4621455714703303,-0.0017538731365097924,-0.18313358667056417
1747152211.9474194,0.997472,0.0,0.12322,-0.035,0.17500000000000002,0.56,-0.4621455714703303,-0.0017538731365097924,-0.18313358667056417
1747152211.951575,0.99613,0.000976,0.123464,-0.08750000000000001,0.22750000000000004,0.665,-0.4621455714703303,-0.0017538731365097924,-0.18313358667056417
1747152211.9564464,0.996862,-0.0008539999999999999,0.12322,-0.08750000000000001,0.2625,0.6125,-0.4621455714703303,-0.0017538731365097924,-0.18313358667056417
1747152211.961317,0.997594,0.000976,0.123586,0.035,0.15750000000000003,0.665,-0.4621455714703303,-0.0017538731365097924,-0.18313358667056417
1747152211.9661896,0.9971059999999999,-0.000122,0.124074,-0.0175,0.08750000000000001,0.5425000000000001,-0.46389944460684013,-0.004969307220111079,-0.18123355743934522
1747152211.971062,0.996374,0.000366,0.12444,0.0175,0.15750000000000003,0.6475000000000001,-0.46389944460684013,-0.004969307220111079,-0.18123355743934522
1747152211.975935,0.99735,0.000488,0.12456199999999999,0.0175,0.17500000000000002,0.5775,-0.46389944460684013,-0.004969307220111079,-0.18123355743934522
1747152211.9808035,0.99674,0.00061,0.123464,0.035,0.12250000000000001,0.5950000000000001,-0.46389944460684013,-0.004969307220111079,-0.18123355743934522
1747152211.985673,0.99735,0.000732,0.123464,0.0,0.15750000000000003,0.56,-0.46389944460684013,-0.004969307220111079,-0.18123355743934522
1747152211.9905465,0.997472,0.000488,0.124074,0.0,0.24500000000000002,0.5775,-0.46389944460684013,-0.004969307220111079,-0.18123355743934522
1747152211.9954205,0.997594,-0.0013419999999999999,0.123342,-0.035,0.21000000000000002,0.5950000000000001,-0.46389944460684013,-0.004969307220111079,-0.18123355743934522
1747152212.0010197,0.998814,0.0013419999999999999,0.123586,-0.0175,0.1925,0.6125,-0.46389944460684013,-0.004969307220111079,-0.18123355743934522
1747152212.0051618,0.9964959999999999,0.000366,0.124074,-0.0175,0.14,0.5950000000000001,-0.46389944460684013,-0.004969307220111079,-0.18123355743934522
1747152212.0100348,0.99735,-0.001952,0.123342,0.0,0.14,0.5075000000000001,-0.4641917567962584,-0.00233849751534639,-0.1891259865536393
1747152212.014906,0.99552,-0.000122,0.123464,-0.07,0.17500000000000002,0.6300000000000001,-0.4641917567962584,-0.00233849751534639,-0.1891259865536393
1747152212.0197814,0.995764,0.0,0.09467199999999999,-0.035,0.17500000000000002,0.5775,-0.4641917567962584,-0.00233849751534639,-0.1891259865536393
1747152212.0246503,0.9977159999999999,0.030622,0.12395199999999999,-0.15750000000000003,0.24500000000000002,0.6300000000000001,-0.4641917567962584,-0.00233849751534639,-0.1891259865536393
1747152212.0295188,0.99674,0.0008539999999999999,0.12224399999999999,-0.12250000000000001,0.2625,0.5950000000000001,-0.4641917567962584,-0.00233849751534639,-0.1891259865536393
1747152212.0343907,0.998204,0.001586,0.125172,-0.10500000000000001,0.28,0.5950000000000001,-0.4641917567962584,-0.00233849751534639,-0.1891259865536393
1747152212.0392637,0.997594,0.000122,0.123708,-0.12250000000000001,0.24500000000000002,0.5950000000000001,-0.4641917567962584,-0.00233849751534639,-0.1891259865536393
1747152212.044148,0.99552,-0.000732,0.123708,-0.12250000000000001,0.15750000000000003,0.56,-0.4641917567962584,-0.00233849751534639,-0.1891259865536393
1747152212.0490162,0.997472,-0.000244,0.12456199999999999,-0.14,0.31500000000000006,0.665,-0.4641917567962584,-0.00233849751534639,-0.1891259865536393
1747152212.054601,0.99857,-0.000122,0.123464,-0.15750000000000003,0.28,0.5950000000000001,-0.4641917567962584,-0.00233849751534639,-0.1891259865536393
1747152212.0587544,0.9989359999999999,0.002562,0.12322,-0.08750000000000001,0.17500000000000002,0.5425000000000001,-0.4574685764396375,-0.00233849751534639,-0.1862028646594563
1747152212.0636256,0.9971059999999999,-0.000366,0.124318,-0.08750000000000001,0.15750000000000003,0.6300000000000001,-0.4574685764396375,-0.00233849751534639,-0.1862028646594563
1747152212.0684936,0.997472,-0.000122,0.124196,-0.10500000000000001,0.21000000000000002,0.665,-0.4574685764396375,-0.00233849751534639,-0.1862028646594563
1747152212.0733666,0.9983259999999999,-0.00122,0.12383,-0.07,0.22750000000000004,0.5950000000000001,-0.4574685764396375,-0.00233849751534639,-0.1862028646594563
1747152212.0782375,0.99674,0.00061,0.123586,-0.07,0.22750000000000004,0.5775,-0.4574685764396375,-0.00233849751534639,-0.1862028646594563
1747152212.0831048,0.997838,0.000976,0.124684,-0.12250000000000001,0.2625,0.6125,-0.4574685764396375,-0.00233849751534639,-0.1862028646594563
1747152212.0879836,0.9977159999999999,-0.0008539999999999999,0.12383,-0.14,0.22750000000000004,0.5775,-0.4574685764396375,-0.00233849751534639,-0.1862028646594563
1747152212.0928535,0.998448,0.000122,0.124684,-0.08750000000000001,0.2625,0.6300000000000001,-0.4574685764396375,-0.00233849751534639,-0.1862028646594563
1747152212.0977216,0.9971059999999999,0.000488,0.12505,-0.035,0.24500000000000002,0.56,-0.4574685764396375,-0.00233849751534639,-0.1862028646594563
1747152212.102596,0.99735,0.000122,0.125538,-0.07,0.1925,0.5775,-0.4574685764396375,-0.00233849751534639,-0.19117217187956737
1747152212.1081796,0.996618,-0.00061,0.121756,-0.052500000000000005,0.1925,0.6475000000000001,-0.47354574685764395,-0.0005846243788365975,-0.19117217187956737
1747152212.1123402,0.99674,0.0008539999999999999,0.123708,-0.052500000000000005,0.1925,0.6475000000000001,-0.47354574685764395,-0.0005846243788365975,-0.19117217187956737
1747152212.1172068,0.9958859999999999,0.00122,0.123708,-0.14,0.24500000000000002,0.525,-0.47354574685764395,-0.0005846243788365975,-0.19117217187956737
1747152212.1220758,0.999058,0.00122,0.124928,4.4625,0.17500000000000002,0.5775,-0.47354574685764395,-0.0005846243788365975,-0.19117217187956737
1747152212.12695,0.99674,0.00061,0.12566,0.0,0.21000000000000002,0.665,-0.47354574685764395,-0.0005846243788365975,-0.19117217187956737
1747152212.1318212,0.995764,0.000122,0.123098,0.0,0.14,0.6300000000000001,-0.47354574685764395,-0.0005846243788365975,-0.19117217187956737
1747152212.136691,0.99857,0.001098,0.12285399999999999,0.0175,0.2625,0.6125,-0.47354574685764395,-0.0005846243788365975,-0.19117217187956737
1747152212.1415637,0.997472,0.0,0.12224399999999999,-0.0175,0.22750000000000004,0.5950000000000001,-0.47354574685764395,-0.0005846243788365975,-0.19117217187956737
1747152212.1464345,0.99613,0.002196,0.12444,0.0175,0.22750000000000004,0.6125,-0.47354574685764395,-0.0005846243788365975,-0.19117217187956737
1747152212.151308,0.998692,-0.001098,0.122366,0.052500000000000005,0.14,0.5425000000000001,-0.45717626425021923,0.001169248757673195,-0.18225665010230926
1747152212.1561801,0.995032,-0.000122,0.123464,-0.0175,0.14,0.5775,-0.45717626425021923,0.001169248757673195,-0.18225665010230926
1747152212.161783,0.998692,0.001586,0.125538,-0.035,0.21000000000000002,0.6300000000000001,-0.45717626425021923,0.001169248757673195,-0.18225665010230926
1747152212.1659281,0.998204,0.0,0.124074,-0.0175,0.1925,0.5950000000000001,-0.45717626425021923,0.001169248757673195,-0.18225665010230926
1747152212.170802,0.995154,-0.00061,0.12285399999999999,0.0175,0.1925,0.6475000000000001,-0.45717626425021923,0.001169248757673195,-0.18225665010230926
1747152212.1756759,0.99796,0.000244,0.12505,-0.052500000000000005,0.1925,0.6475000000000001,-0.45717626425021923,0.001169248757673195,-0.18225665010230926
1747152212.1805446,0.996618,-0.00122,0.12395199999999999,-0.08750000000000001,0.17500000000000002,0.6125,-0.45717626425021923,0.001169248757673195,-0.18225665010230926
1747152212.1854167,0.998082,-0.000244,0.124318,-0.08750000000000001,0.21000000000000002,0.6125,-0.45717626425021923,0.001169248757673195,-0.18225665010230926
1747152212.1902921,0.99796,0.000366,0.12627,-0.10500000000000001,0.2625,0.6125,-0.45717626425021923,0.001169248757673195,-0.18225665010230926
1747152212.1951616,0.996862,0.00061,0.12383,-0.1925,0.22750000000000004,0.5775,-0.45717626425021923,0.001169248757673195,-0.18225665010230926
1747152212.2000358,1.000278,-0.000244,0.123708,-0.21000000000000002,0.22750000000000004,0.6125,-0.4668225665010231,-0.0020461853259280912,-0.18693364513300204
1747152212.204904,0.997838,0.000122,0.122366,-0.17500000000000002,0.24500000000000002,0.6300000000000001,-0.4668225665010231,-0.0020461853259280912,-0.18693364513300204
1747152212.209778,0.99674,0.001098,0.122732,-0.24500000000000002,0.2625,0.6300000000000001,-0.4668225665010231,-0.0020461853259280912,-0.18693364513300204
1747152212.2153869,0.99857,0.000122,0.124196,-0.2625,0.2625,0.6475000000000001,-0.4668225665010231,-0.0020461853259280912,-0.18693364513300204
1747152212.219522,0.99735,-0.000122,0.124196,-0.17500000000000002,0.29750000000000004,0.6475000000000001,-0.4668225665010231,-0.0020461853259280912,-0.18693364513300204
1747152212.2243934,0.996618,0.000976,0.122488,-0.14,0.2625,0.5775,-0.4668225665010231,-0.0020461853259280912,-0.18693364513300204
1747152212.2292671,0.99857,-0.000366,0.122732,-0.21000000000000002,0.1925,0.6125,-0.4668225665010231,-0.0020461853259280912,-0.18693364513300204
1747152212.2341409,0.9971059999999999,0.000244,0.126026,-0.17500000000000002,0.1925,0.6125,-0.4668225665010231,-0.0020461853259280912,-0.18693364513300204
1747152212.2390103,0.9964959999999999,0.0,0.124074,-0.12250000000000001,0.24500000000000002,0.5425000000000001,-0.4668225665010231,-0.0020461853259280912,-0.18693364513300204
1747152212.243884,0.997228,-0.000976,0.123708,-0.07,0.22750000000000004,0.5075000000000001,-0.4595147617655656,-0.008477053493130663,-0.1844489915229465
1747152212.2487497,0.9989359999999999,0.000244,0.124196,-0.08750000000000001,0.22750000000000004,0.5950000000000001,-0.4595147617655656,-0.008477053493130663,-0.1844489915229465
1747152212.2536225,0.997594,0.000366,0.124318,-0.12250000000000001,0.21000000000000002,0.6125,-0.4595147617655656,-0.008477053493130663,-0.1844489915229465
1747152212.258497,0.998448,0.000976,0.124074,-0.07,0.15750000000000003,0.6125,-0.4595147617655656,-0.008477053493130663,-0.1844489915229465
1747152212.26337,0.9958859999999999,0.000366,0.124074,-0.035,0.17500000000000002,0.5950000000000001,-0.4595147617655656,-0.008477053493130663,-0.1844489915229465
1747152212.2748485,0.997472,0.00061,0.124074,-0.14,0.24500000000000002,0.6300000000000001,-0.4595147617655656,-0.008477053493130663,-0.1844489915229465
1747152212.2777505,0.999302,0.000244,0.12224399999999999,-0.052500000000000005,0.17500000000000002,0.5950000000000001,-0.4595147617655656,-0.008477053493130663,-0.1844489915229465
1747152212.2826207,0.99552,-0.000122,0.124196,-0.052500000000000005,0.17500000000000002,0.6125,-0.4595147617655656,-0.008477053493130663,-0.1844489915229465
1747152212.2874923,0.9977159999999999,-0.00061,0.123586,0.052500000000000005,0.1925,0.6300000000000001,-0.4595147617655656,-0.008477053493130663,-0.1844489915229465
1747152212.292365,0.996618,0.000366,0.12395199999999999,-0.0175,0.15750000000000003,0.56,-0.4612686349020754,-0.00935399006138556,-0.18401052323881906
1747152212.2972367,0.9977159999999999,-0.00122,0.123464,-0.0175,0.14,0.6125,-0.4612686349020754,-0.00935399006138556,-0.18401052323881906
1747152212.3021078,0.997228,0.00061,0.125172,-0.07,0.21000000000000002,0.6300000000000001,-0.4612686349020754,-0.00935399006138556,-0.18401052323881906
1747152212.3069744,0.99735,0.0,0.125416,-0.08750000000000001,0.21000000000000002,0.5950000000000001,-0.4612686349020754,-0.00935399006138556,-0.18401052323881906
1747152212.311855,0.998448,-0.000244,0.123586,-0.07,0.21000000000000002,0.6125,-0.4612686349020754,-0.00935399006138556,-0.18401052323881906
1747152212.3167233,0.99857,0.000732,0.12456199999999999,-0.08750000000000001,0.15750000000000003,0.6125,-0.4612686349020754,-0.00935399006138556,-0.18401052323881906
1747152212.321599,0.998814,0.000366,0.12383,-0.14,0.24500000000000002,0.5775,-0.4612686349020754,-0.00935399006138556,-0.18401052323881906
1747152212.3294225,0.997472,-0.000244,0.12285399999999999,-0.14,0.24500000000000002,0.6125,-0.4612686349020754,-0.00935399006138556,-0.18401052323881906
1747152212.3323524,0.996862,0.0023179999999999997,0.122732,-0.14,0.24500000000000002,0.6125,-0.4612686349020754,-0.00935399006138556,-0.18401052323881906
1747152212.337225,0.9977159999999999,-0.000122,0.12444,-0.035,0.15750000000000003,0.56,-0.45542239111370947,-0.00467699503069278,-0.19292604501607716
1747152212.3420968,0.99796,-0.000488,0.12224399999999999,-0.15750000000000003,0.17500000000000002,0.56,-0.45542239111370947,-0.00467699503069278,-0.19292604501607716
1747152212.3469665,0.998082,0.000122,0.12505,-0.12250000000000001,0.28,0.5950000000000001,-0.45542239111370947,-0.00467699503069278,-0.19292604501607716
1747152212.3518393,0.99735,0.000244,0.124928,-0.1925,0.24500000000000002,0.5950000000000001,-0.45542239111370947,-0.00467699503069278,-0.19292604501607716
1747152212.3567083,0.996374,0.002074,0.124684,-0.1925,0.1925,0.525,-0.45542239111370947,-0.00467699503069278,-0.19292604501607716
1747152212.361585,0.996008,0.000976,0.125172,-0.1925,0.4025,0.665,-0.45542239111370947,-0.00467699503069278,-0.19292604501607716
1747152212.366456,0.996984,0.00061,0.125538,-0.21000000000000002,0.31500000000000006,0.5950000000000001,-0.45542239111370947,-0.00467699503069278,-0.19292604501607716
1747152212.371339,0.999302,-0.000122,0.123464,-0.24500000000000002,0.29750000000000004,0.6125,-0.45542239111370947,-0.00467699503069278,-0.19292604501607716
1747152212.3762,0.996618,0.000488,0.12395199999999999,-0.22750000000000004,0.36750000000000005,0.665,-0.45542239111370947,-0.00467699503069278,-0.19292604501607716
1747152212.3834076,0.998204,0.000366,0.12395199999999999,-0.22750000000000004,0.28,0.6125,-0.45542239111370947,-0.00467699503069278,-0.19292604501607716
1747152212.3863497,0.99796,0.002074,0.12444,-0.14,0.17500000000000002,0.5425000000000001,-0.4682841274481146,-0.005261619409529378,-0.18722595732242034
1747152212.391221,0.9977159999999999,-0.0008539999999999999,0.122488,-0.10500000000000001,0.14,0.5425000000000001,-0.4682841274481146,-0.005261619409529378,-0.18722595732242034
1747152212.396093,0.99735,0.00122,0.12456199999999999,0.0,0.22750000000000004,0.6300000000000001,-0.4682841274481146,-0.005261619409529378,-0.18722595732242034
1747152212.400961,0.997594,0.00061,0.125416,0.0175,0.1925,0.525,-0.4682841274481146,-0.005261619409529378,-0.18722595732242034
1747152212.4058304,0.997594,0.000244,0.123098,0.0,0.15750000000000003,0.6125,-0.4682841274481146,-0.005261619409529378,-0.18722595732242034
1747152212.4107063,0.996862,-0.000122,0.125294,0.0,0.24500000000000002,0.6475000000000001,-0.4682841274481146,-0.005261619409529378,-0.18722595732242034
1747152212.4155786,0.998814,-0.0008539999999999999,0.123098,-0.052500000000000005,0.22750000000000004,0.6125,-0.4682841274481146,-0.005261619409529378,-0.18722595732242034
1747152212.4204504,0.99735,0.0017079999999999999,0.12505,-0.07,0.28,0.6300000000000001,-0.4682841274481146,-0.005261619409529378,-0.18722595732242034
1747152212.4253252,0.996618,0.00061,0.126148,-0.07,0.21000000000000002,0.6125,-0.4682841274481146,-0.005261619409529378,-0.18722595732242034
1747152212.4301968,0.99857,0.0008539999999999999,0.12456199999999999,0.0,0.14,0.5950000000000001,-0.4682841274481146,-0.005261619409529378,-0.18722595732242034
1747152212.4365053,0.99735,-0.001464,0.124318,-0.10500000000000001,0.1925,0.56,-0.4656533177433499,0.00029231218941829873,-0.19204910844782228
1747152212.4399416,0.99735,-0.001464,0.124318,-0.10500000000000001,0.24500000000000002,0.56,-0.4656533177433499,0.00029231218941829873,-0.19204910844782228
1747152212.4448082,0.99796,0.000488,0.12456199999999999,-0.15750000000000003,0.17500000000000002,0.5425000000000001,-0.4656533177433499,0.00029231218941829873,-0.19204910844782228
1747152212.449682,0.99674,0.00122,0.12395199999999999,-0.1925,0.21000000000000002,0.56,-0.4656533177433499,0.00029231218941829873,-0.19204910844782228
1747152212.4545524,0.99674,0.00122,0.122366,-0.1925,0.21000000000000002,0.6475000000000001,-0.4656533177433499,0.00029231218941829873,-0.19204910844782228
1747152212.459434,0.998448,0.0305,0.123098,-0.17500000000000002,0.31500000000000006,0.5950000000000001,-0.4656533177433499,0.00029231218941829873,-0.19204910844782228
1747152212.4642992,0.997594,-0.000122,0.12444,-0.17500000000000002,0.28,0.665,-0.4656533177433499,0.00029231218941829873,-0.19204910844782228
1747152212.4691718,0.996984,0.0008539999999999999,0.124684,-0.17500000000000002,0.31500000000000006,0.6300000000000001,-0.4656533177433499,0.00029231218941829873,-0.19204910844782228
1747152212.4740417,0.996984,-0.0013419999999999999,0.123464,-0.22750000000000004,0.24500000000000002,0.6475000000000001,-0.4656533177433499,0.00029231218941829873,-0.19204910844782228
1747152212.478914,0.998204,0.0,0.12444,-0.1925,0.1925,0.56,-0.4636071324174218,-0.003800058462437884,-0.18868751826951183
1747152212.4837873,0.998692,-0.000122,0.12395199999999999,-0.12250000000000001,0.17500000000000002,0.56,-0.4636071324174218,-0.003800058462437884,-0.18868751826951183
1747152212.4895651,0.99796,-0.000366,0.126026,-0.15750000000000003,0.2625,0.6475000000000001,-0.4636071324174218,-0.003800058462437884,-0.18868751826951183
1747152212.4935284,0.99735,0.000122,0.122976,-0.15750000000000003,0.1925,0.6125,-0.4636071324174218,-0.003800058462437884,-0.18868751826951183
1747152212.4983983,0.997594,0.001464,0.124074,-0.12250000000000001,0.12250000000000001,0.525,-0.4636071324174218,-0.003800058462437884,-0.18868751826951183
1747152212.503271,0.996984,0.000488,0.126392,-0.22750000000000004,0.22750000000000004,0.5950000000000001,-0.4636071324174218,-0.003800058462437884,-0.18868751826951183
1747152212.5081532,0.99613,-0.0013419999999999999,0.123464,-0.1925,0.31500000000000006,0.6125,-0.4636071324174218,-0.003800058462437884,-0.18868751826951183
1747152212.513018,0.998082,0.001098,0.124928,-0.10500000000000001,0.24500000000000002,0.6300000000000001,-0.4636071324174218,-0.003800058462437884,-0.18868751826951183
1747152212.5178802,0.997594,0.001586,0.12322,-0.07,0.22750000000000004,0.6125,-0.4636071324174218,-0.003800058462437884,-0.18868751826951183
1747152212.5227582,0.99735,-0.000732,0.12456199999999999,-0.12250000000000001,0.24500000000000002,0.6125,-0.4636071324174218,-0.003800058462437884,-0.18868751826951183
1747152212.5276291,0.9971059999999999,0.001098,0.123464,-0.17500000000000002,0.22750000000000004,0.5425000000000001,-0.45980707395498394,0.007307804735457469,-0.1864951768488746
1747152212.5325022,0.996374,-0.000488,0.12383,-0.10500000000000001,0.15750000000000003,0.5775,-0.45980707395498394,0.007307804735457469,-0.1864951768488746
1747152212.5373776,0.998204,0.000976,0.122488,0.08750000000000001,0.21000000000000002,0.6300000000000001,-0.45980707395498394,0.007307804735457469,-0.1864951768488746
1747152212.542984,0.9971059999999999,0.00061,0.122,0.035,0.1925,0.665,-0.45980707395498394,0.007307804735457469,-0.1864951768488746
1747152212.5471177,0.996984,0.00183,0.123098,0.035,0.1925,0.665,-0.45980707395498394,0.007307804735457469,-0.1864951768488746
1747152212.5519927,0.9971059999999999,-0.000244,0.12395199999999999,0.0,0.21000000000000002,0.6300000000000001,-0.45980707395498394,0.007307804735457469,-0.1864951768488746
1747152212.5568619,0.996984,-0.001098,0.123098,0.0175,0.15750000000000003,0.5950000000000001,-0.45980707395498394,0.007307804735457469,-0.1864951768488746
1747152212.561733,0.9977159999999999,-0.000488,0.124684,0.0175,0.15750000000000003,0.5950000000000001,-0.45980707395498394,0.007307804735457469,-0.1864951768488746
1747152212.5666063,0.9977159999999999,-0.00122,0.124684,-0.0175,0.24500000000000002,0.6825000000000001,-0.45980707395498394,0.007307804735457469,-0.1864951768488746
1747152212.571477,0.997838,-0.000732,0.125172,-0.08750000000000001,0.17500000000000002,0.5950000000000001,-0.4630225080385852,-0.0043846828412744815,-0.1853259280912014
1747152212.5763488,0.9989359999999999,-0.001098,0.123464,-0.07,0.14,0.5950000000000001,-0.4630225080385852,-0.0043846828412744815,-0.1853259280912014
1747152212.5812168,0.9983259999999999,-0.000732,0.124074,-0.035,0.17500000000000002,0.6125,-0.4630225080385852,-0.0043846828412744815,-0.1853259280912014
1747152212.5860908,0.997838,0.001464,0.124806,0.0,0.24500000000000002,0.5775,-0.4630225080385852,-0.0043846828412744815,-0.1853259280912014
1747152212.5909646,0.99735,-0.001098,0.12456199999999999,-0.10500000000000001,0.1925,0.5950000000000001,-0.4630225080385852,-0.0043846828412744815,-0.1853259280912014
1747152212.5965464,0.997472,-0.000122,0.125904,-0.07,0.21000000000000002,0.6300000000000001,-0.4630225080385852,-0.0043846828412744815,-0.1853259280912014
1747152212.600702,0.9977159999999999,-0.000488,0.125416,-0.035,0.22750000000000004,0.5950000000000001,-0.4630225080385852,-0.0043846828412744815,-0.1853259280912014
1747152212.6055732,0.9971059999999999,-0.0013419999999999999,0.123586,0.0,0.17500000000000002,0.5775,-0.4630225080385852,-0.0043846828412744815,-0.1853259280912014
