Timestamp,Accel X,Accel Y,Accel Z,Gyro X,Gyro Y,Gyro Z,Magneto X,Magneto Y,Magneto Z
1746543880.5846424,0.880352,-0.01464,0.076616,1944.1800000000003,-1205.19,14.420000000000002,-0.058445353594389245,-0.13208649912331968,-0.18819403857393338
1746543880.6646683,1.007232,-0.012688,0.083448,-1922.9700000000003,-417.34000000000003,-398.72,-0.058445353594389245,-0.13208649912331968,-0.18819403857393338
1746543880.7447271,1.007232,-0.012199999999999999,0.083936,-0.14,0.07,0.35000000000000003,-0.058445353594389245,-0.13208649912331968,-0.18819403857393338
1746543880.8248026,1.00772,-0.011712,0.083448,-0.14,0.07,0.35000000000000003,-0.058445353594389245,-0.13208649912331968,-0.18819403857393338
1746543880.9048488,1.007232,-0.012199999999999999,0.083448,-0.14,0.07,0.35000000000000003,-0.058445353594389245,-0.13208649912331968,-0.18819403857393338
1746543880.9849067,1.00772,-0.012199999999999999,0.083448,-0.14,0.07,0.35000000000000003,-0.058445353594389245,-0.13208649912331968,-0.18819403857393338
1746543881.0649729,1.007232,-0.012199999999999999,0.083936,-0.14,0.07,0.35000000000000003,-0.058445353594389245,-0.13208649912331968,-0.18819403857393338
1746543881.145078,1.00772,-0.012688,0.083936,-0.14,0.07,0.35000000000000003,-0.058445353594389245,-0.13208649912331968,-0.18819403857393338
1746543881.2251465,1.00772,-0.012199999999999999,0.084424,-0.14,0.07,0.35000000000000003,-0.058445353594389245,-0.13208649912331968,-0.18819403857393338
1746543881.30519,1.007232,-0.011712,0.083936,-0.14,0.07,0.35000000000000003,-0.058445353594389245,-0.13208649912331968,-0.18819403857393338
1746543881.385252,1.00772,-0.012199999999999999,0.084912,-0.14,0.07,0.35000000000000003,-0.058445353594389245,-0.13208649912331968,-0.18819403857393338
1746543881.4653199,1.00772,-0.011712,0.083448,-0.14,0.0,0.35000000000000003,-0.058445353594389245,-0.13208649912331968,-0.18819403857393338
1746543881.5453732,1.006744,-0.011712,0.083448,-0.14,0.07,0.35000000000000003,-0.058445353594389245,-0.13208649912331968,-0.18819403857393338
1746543881.6254404,1.00772,-0.012199999999999999,0.083936,-0.14,0.0,0.35000000000000003,-0.058445353594389245,-0.13208649912331968,-0.18819403857393338
1746543881.7054965,1.007232,-0.012199999999999999,0.084424,-0.14,0.07,0.35000000000000003,-0.058445353594389245,-0.13208649912331968,-0.18819403857393338
1746543881.7855575,1.00772,-0.012199999999999999,0.084424,-0.14,0.07,0.35000000000000003,-0.058445353594389245,-0.13208649912331968,-0.18819403857393338
1746543881.8656175,1.00772,-0.012199999999999999,0.084424,-0.14,0.0,0.35000000000000003,-0.058445353594389245,-0.13208649912331968,-0.18819403857393338
1746543881.9456823,1.00772,-0.012199999999999999,0.084424,-0.14,0.0,0.35000000000000003,-0.058445353594389245,-0.13208649912331968,-0.18819403857393338
1746543882.0257487,1.00772,-0.012688,0.084424,-0.14,0.07,0.35000000000000003,-0.06312098188194039,-0.13559322033898305,-0.20806545879602573
1746543882.1058185,1.00772,-0.011712,0.083936,-0.14,0.0,0.35000000000000003,-0.06312098188194039,-0.13559322033898305,-0.20806545879602573
1746543882.1859004,1.00772,-0.011712,0.084424,-0.14,0.0,0.35000000000000003,-0.06312098188194039,-0.13559322033898305,-0.20806545879602573
1746543882.2659473,1.008208,-0.011712,0.084424,-0.14,0.07,0.35000000000000003,-0.06312098188194039,-0.13559322033898305,-0.20806545879602573
1746543882.3460104,1.00772,-0.011712,0.084424,-0.14,0.07,0.35000000000000003,-0.06312098188194039,-0.13559322033898305,-0.20806545879602573
1746543882.4260814,1.008208,-0.012199999999999999,0.084424,-0.14,0.07,0.35000000000000003,-0.06312098188194039,-0.13559322033898305,-0.20806545879602573
1746543882.5061374,1.007232,-0.012199999999999999,0.084424,-0.14,0.07,0.35000000000000003,-0.06312098188194039,-0.13559322033898305,-0.20806545879602573
1746543882.5861955,1.00772,-0.012688,0.084912,-0.14,0.0,0.35000000000000003,-0.06312098188194039,-0.13559322033898305,-0.20806545879602573
1746543882.6662607,1.007232,-0.012688,0.084912,-0.14,0.07,0.35000000000000003,-0.06312098188194039,-0.13559322033898305,-0.20806545879602573
1746543882.7463174,1.007232,-0.012199999999999999,0.084424,-0.14,0.07,0.35000000000000003,-0.06312098188194039,-0.13559322033898305,-0.20806545879602573
1746543882.82638,1.007232,-0.012199999999999999,0.084424,-0.14,0.0,0.35000000000000003,-0.06312098188194039,-0.13559322033898305,-0.20806545879602573
1746543882.9064398,1.00772,-0.011712,0.084912,-0.14,0.0,0.35000000000000003,-0.06312098188194039,-0.13559322033898305,-0.20806545879602573
1746543882.986501,1.00772,-0.012688,0.084912,-0.14,0.0,0.35000000000000003,-0.06312098188194039,-0.13559322033898305,-0.20806545879602573
1746543883.0665674,1.00772,-0.011712,0.083936,-0.14,0.0,0.35000000000000003,-0.06312098188194039,-0.13559322033898305,-0.20806545879602573
1746543883.1466281,1.006744,-0.011712,0.084424,-0.14,0.07,0.35000000000000003,-0.06312098188194039,-0.13559322033898305,-0.20806545879602573
1746543883.2267714,1.008696,-0.020496,0.09174399999999999,-0.14,0.0,0.42000000000000004,-0.06312098188194039,-0.13559322033898305,-0.20806545879602573
1746543883.306797,1.199992,-0.138592,0.303048,2.24,4.130000000000001,-1.8200000000000003,-0.06312098188194039,-0.13559322033898305,-0.20806545879602573
1746543883.3868542,1.199504,-0.165432,0.157136,-7.98,27.790000000000003,-16.310000000000002,-0.06312098188194039,-0.13559322033898305,-0.20806545879602573
1746543883.4669194,1.258552,-0.108336,0.2806,-26.53,-4.760000000000001,1.6800000000000002,-0.06312098188194039,-0.13559322033898305,-0.20806545879602573
1746543883.5469768,1.082872,-0.09028,0.2196,-47.74,1.2600000000000002,-1.4700000000000002,-0.06312098188194039,-0.13559322033898305,-0.20806545879602573
1746543883.6270385,0.999424,-0.12102399999999999,0.115656,-69.58000000000001,-10.64,-13.72,-0.1472822910578609,-0.2887200467562829,-0.11221507890122735
1746543883.7071042,0.976488,-0.123464,0.139568,-79.45,-17.92,-11.410000000000002,-0.1472822910578609,-0.2887200467562829,-0.11221507890122735
1746543883.7871637,0.894504,-0.050263999999999996,0.1708,-80.01,2.31,-1.1900000000000002,-0.1472822910578609,-0.2887200467562829,-0.11221507890122735
1746543883.867225,0.826672,0.001952,0.141032,-84.49000000000001,14.560000000000002,1.8200000000000003,-0.1472822910578609,-0.2887200467562829,-0.11221507890122735
1746543883.9473004,0.862784,0.01952,0.076128,-84.77000000000001,13.650000000000002,-5.74,-0.1472822910578609,-0.2887200467562829,-0.11221507890122735
1746543884.0273538,0.87352,0.030744,0.106872,-70.07000000000001,17.78,-8.260000000000002,-0.1472822910578609,-0.2887200467562829,-0.11221507890122735
1746543884.1074135,0.897432,0.05368,0.128832,-58.660000000000004,2.3800000000000003,-10.780000000000001,-0.1472822910578609,-0.2887200467562829,-0.11221507890122735
1746543884.1874983,0.957944,0.089792,0.14249599999999998,-48.300000000000004,-11.410000000000002,-7.5600000000000005,-0.1472822910578609,-0.2887200467562829,-0.11221507890122735
1746543884.2675407,0.978928,0.111264,0.073688,-37.31,-10.64,2.87,-0.1472822910578609,-0.2887200467562829,-0.11221507890122735
1746543884.3476121,0.9803919999999999,0.159576,0.127368,-23.590000000000003,-8.47,4.83,-0.1472822910578609,-0.2887200467562829,-0.11221507890122735
1746543884.427679,0.927688,0.142008,0.117608,-20.23,-5.95,0.42000000000000004,-0.1472822910578609,-0.2887200467562829,-0.11221507890122735
1746543884.5077374,0.937936,0.078568,0.149328,-21.840000000000003,-4.62,-5.040000000000001,-0.1472822910578609,-0.2887200467562829,-0.11221507890122735
1746543884.5877976,0.931592,0.110776,0.162992,-13.3,3.7100000000000004,-12.110000000000001,-0.1472822910578609,-0.2887200467562829,-0.11221507890122735
1746543884.6678596,0.969656,0.056608,0.07564,-12.950000000000001,0.6300000000000001,-10.500000000000002,-0.1472822910578609,-0.2887200467562829,-0.11221507890122735
1746543884.747927,1.030168,-0.032208,0.041479999999999996,-12.81,4.9,-2.5900000000000003,-0.1472822910578609,-0.2887200467562829,-0.11221507890122735
1746543884.827986,1.0413919999999999,0.000488,-0.015127999999999999,-12.81,3.22,8.05,-0.1472822910578609,-0.2887200467562829,-0.11221507890122735
1746543884.908051,1.106296,-0.056119999999999996,0.12102399999999999,-17.71,-8.96,6.930000000000001,-0.1472822910578609,-0.2887200467562829,-0.11221507890122735
1746543884.9881153,1.079944,-0.108336,0.140544,-18.900000000000002,-7.280000000000001,7.98,-0.1472822910578609,-0.2887200467562829,-0.11221507890122735
1746543885.06818,0.98576,-0.0366,0.110776,-14.980000000000002,-4.2,3.6400000000000006,-0.1472822910578609,-0.2887200467562829,-0.11221507890122735
1746543885.14824,0.9706319999999999,-0.11468,0.08003199999999999,-28.140000000000004,-5.180000000000001,-4.9,-0.48977206312098187,-0.0701344243132671,-0.2244301578024547
1746543885.228332,1.119472,-0.20349599999999998,0.142984,-34.160000000000004,-3.3600000000000003,-7.140000000000001,-0.48977206312098187,-0.0701344243132671,-0.2244301578024547
1746543885.3083963,1.047248,-0.228384,0.135664,-28.840000000000003,22.540000000000003,13.860000000000001,-0.48977206312098187,-0.0701344243132671,-0.2244301578024547
1746543885.392471,0.868152,-0.135176,0.019032,-22.89,28.980000000000004,25.69,-0.48977206312098187,-0.0701344243132671,-0.2244301578024547
1746543885.472582,0.924272,-0.067832,0.033184,-27.860000000000003,5.6000000000000005,6.930000000000001,-0.48977206312098187,-0.0701344243132671,-0.2244301578024547
1746543885.5526574,0.97112,-0.11468,0.11809599999999999,-40.25000000000001,-6.86,-6.300000000000001,-0.48977206312098187,-0.0701344243132671,-0.2244301578024547
1746543885.6327348,0.986248,-0.13078399999999998,0.05856,-42.28,-11.410000000000002,-19.950000000000003,-0.48977206312098187,-0.0701344243132671,-0.2244301578024547
1746543885.7128584,1.138992,-0.170312,0.010735999999999999,-12.670000000000002,1.05,-18.69,-0.48977206312098187,-0.0701344243132671,-0.2244301578024547
1746543885.800279,1.005768,0.010248,0.156648,-12.110000000000001,24.01,-12.81,-0.48977206312098187,-0.0701344243132671,-0.2244301578024547
1746543885.8729932,0.915,0.116144,0.056119999999999996,-24.500000000000004,-7.700000000000001,-20.650000000000002,-0.48977206312098187,-0.0701344243132671,-0.2244301578024547
1746543885.9530818,0.83936,0.08295999999999999,0.023424,-40.18000000000001,-44.870000000000005,-5.6000000000000005,-0.48977206312098187,-0.0701344243132671,-0.2244301578024547
1746543886.034923,0.945744,0.11223999999999999,-0.008784,-37.940000000000005,-49.63,6.790000000000001,-0.48977206312098187,-0.0701344243132671,-0.2244301578024547
1746543886.1132982,0.8066639999999999,-0.05124,-0.050263999999999996,-34.02,-27.720000000000002,6.720000000000001,-0.48977206312098187,-0.0701344243132671,-0.2244301578024547
1746543886.1933823,0.952576,-0.023424,-0.08784,-20.650000000000002,-9.38,21.910000000000004,-0.48977206312098187,-0.0701344243132671,-0.2244301578024547
1746543886.2734482,1.06384,-0.00976,-0.101016,-14.700000000000001,3.22,17.990000000000002,-0.48977206312098187,-0.0701344243132671,-0.2244301578024547
1746543886.3535335,1.284416,-0.120048,-0.00732,-10.500000000000002,11.55,21.21,-0.48977206312098187,-0.0701344243132671,-0.2244301578024547
1746543886.437851,0.9989359999999999,-0.09174399999999999,0.045871999999999996,-6.86,28.560000000000002,4.550000000000001,-0.48977206312098187,-0.0701344243132671,-0.2244301578024547
1746543886.5137136,1.0735999999999999,-0.135176,0.011712,-15.890000000000002,-15.610000000000001,-9.24,-0.48977206312098187,-0.0701344243132671,-0.2244301578024547
1746543886.5938046,0.85644,-0.14835199999999998,-0.013176,-14.840000000000002,-23.520000000000003,-2.7300000000000004,-0.48977206312098187,-0.0701344243132671,-0.2244301578024547
1746543886.681241,0.774944,-0.010248,-0.081496,-5.180000000000001,-16.17,7.490000000000001,-0.4734073641145529,0.05961426066627703,-0.05493863237872589
1746543886.753974,0.920368,-0.10248,-0.164944,1.33,-4.69,13.440000000000001,-0.4734073641145529,0.05961426066627703,-0.05493863237872589
1746543886.8340611,0.96868,-0.000976,-0.169336,5.670000000000001,-3.1500000000000004,-13.3,-0.4734073641145529,0.05961426066627703,-0.05493863237872589
1746543886.9159229,1.340048,-0.020496,0.055632,16.380000000000003,-1.2600000000000002,-4.0600000000000005,-0.4734073641145529,0.05961426066627703,-0.05493863237872589
1746543886.9942372,1.098,0.012688,0.001464,26.880000000000003,5.460000000000001,2.5900000000000003,-0.4734073641145529,0.05961426066627703,-0.05493863237872589
1746543887.0743318,0.938912,-0.057096,-0.011712,26.390000000000004,10.71,10.920000000000002,-0.4734073641145529,0.05961426066627703,-0.05493863237872589
1746543887.154857,0.794464,-0.020007999999999998,-0.08784,22.400000000000002,10.430000000000001,2.8000000000000003,-0.4734073641145529,0.05961426066627703,-0.05493863237872589
1746543887.234924,0.767624,-0.040015999999999996,-0.07417599999999999,15.610000000000001,-8.89,3.5700000000000003,-0.4734073641145529,0.05961426066627703,-0.05493863237872589
1746543887.3188417,1.006744,-0.032208,-0.064904,22.330000000000002,7.7700000000000005,12.39,-0.4734073641145529,0.05961426066627703,-0.05493863237872589
1746543887.395091,1.159,-0.09272,-0.09516,15.120000000000001,12.88,7.840000000000001,-0.4734073641145529,0.05961426066627703,-0.05493863237872589
1746543887.475198,1.373232,-0.16836,-0.017568,-15.400000000000002,-22.19,-4.0600000000000005,-0.4734073641145529,0.05961426066627703,-0.05493863237872589
1746543887.5626268,1.15656,-0.19178399999999998,0.0854,-23.17,-17.64,-7.000000000000001,-0.4734073641145529,0.05961426066627703,-0.05493863237872589
1746543887.635365,1.04676,-0.208376,0.059536,-9.31,9.940000000000001,-2.5200000000000005,-0.4734073641145529,0.05961426066627703,-0.05493863237872589
1746543887.715461,0.833992,-0.160552,0.004392,-3.1500000000000004,28.000000000000004,10.22,-0.4734073641145529,0.05961426066627703,-0.05493863237872589
1746543887.7972598,0.6944239999999999,-0.083936,0.022448,0.8400000000000001,27.020000000000003,5.390000000000001,-0.4734073641145529,0.05961426066627703,-0.05493863237872589
1746543887.875628,0.76128,0.000488,-0.010735999999999999,-3.2900000000000005,16.03,-14.350000000000001,-0.4734073641145529,0.05961426066627703,-0.05493863237872589
1746543887.9557164,1.00772,-0.07124799999999999,-0.023912,1.9600000000000002,-4.83,-9.31,-0.4734073641145529,0.05961426066627703,-0.05493863237872589
1746543888.0358067,1.23952,-0.054655999999999996,0.122488,9.940000000000001,-3.9200000000000004,-9.170000000000002,-0.4734073641145529,0.05961426066627703,-0.05493863237872589
1746543888.1159058,1.1770559999999999,0.000976,0.120048,14.560000000000002,-3.9200000000000004,-2.87,-0.4734073641145529,0.05961426066627703,-0.05493863237872589
1746543888.200171,1.076528,-0.067832,0.10492,11.55,5.670000000000001,5.670000000000001,-0.4734073641145529,0.05961426066627703,-0.05493863237872589
1746543888.2760816,0.724192,-0.038064,0.010735999999999999,10.71,30.240000000000002,-2.66,-0.46756282875511396,0.02104032729398013,-0.11221507890122735
1746543888.3561678,0.765184,-0.002928,0.0068319999999999995,9.450000000000001,15.190000000000001,-8.82,-0.46756282875511396,0.02104032729398013,-0.11221507890122735
1746543888.445214,0.9101199999999999,0.072224,-0.0068319999999999995,2.5200000000000005,-13.650000000000002,-7.98,-0.46756282875511396,0.02104032729398013,-0.11221507890122735
1746543888.5163407,1.148752,-0.057583999999999996,0.076616,-14.560000000000002,-22.680000000000003,6.86,-0.46756282875511396,0.02104032729398013,-0.11221507890122735
1746543888.5964277,1.317112,-0.138592,0.105408,-20.720000000000002,-3.08,12.39,-0.46756282875511396,0.02104032729398013,-0.11221507890122735
1746543888.677686,1.072624,-0.167384,0.188856,-14.070000000000002,27.37,4.760000000000001,-0.46756282875511396,0.02104032729398013,-0.11221507890122735
1746543888.7566085,0.965264,-0.046848,0.122488,-4.550000000000001,11.9,2.0300000000000002,-0.46756282875511396,0.02104032729398013,-0.11221507890122735
1746543888.8366923,0.829112,-0.067344,0.08052,-27.230000000000004,-14.560000000000002,10.850000000000001,-0.46756282875511396,0.02104032729398013,-0.11221507890122735
1746543888.9167726,0.828136,-0.022448,-0.00732,-15.190000000000001,-8.120000000000001,-0.07,-0.46756282875511396,0.02104032729398013,-0.11221507890122735
1746543888.996886,0.862784,-0.066368,-0.004392,-11.270000000000001,14.280000000000001,-8.47,-0.46756282875511396,0.02104032729398013,-0.11221507890122735
1746543889.0809224,1.267824,-0.041968,0.190808,7.700000000000001,-3.5000000000000004,-10.15,-0.46756282875511396,0.02104032729398013,-0.11221507890122735
1746543889.1570742,1.2361039999999999,0.041479999999999996,0.235704,20.860000000000003,0.8400000000000001,-0.77,-0.46756282875511396,0.02104032729398013,-0.11221507890122735
1746543889.2372427,1.069696,0.050752,0.200568,19.740000000000002,0.9800000000000001,7.280000000000001,-0.46756282875511396,0.02104032729398013,-0.11221507890122735
1746543889.317306,0.796416,0.035623999999999996,0.16104,17.220000000000002,5.11,8.47,-0.46756282875511396,0.02104032729398013,-0.11221507890122735
1746543889.39736,0.699792,-0.028304,0.026352,13.930000000000001,-4.2,10.080000000000002,-0.46756282875511396,0.02104032729398013,-0.11221507890122735
1746543889.477455,0.84668,0.002928,0.000488,10.99,-13.090000000000002,6.370000000000001,-0.46756282875511396,0.02104032729398013,-0.11221507890122735
1746543889.5575523,1.106784,-0.00488,0.020496,3.1500000000000004,-17.990000000000002,1.12,-0.46756282875511396,0.02104032729398013,-0.11221507890122735
1746543889.6376286,1.252208,-0.094184,0.108336,-5.53,-12.110000000000001,-4.550000000000001,-0.46756282875511396,0.02104032729398013,-0.11221507890122735
1746543889.7177238,1.226832,-0.11809599999999999,0.182024,-4.550000000000001,-0.6300000000000001,-5.32,-0.46756282875511396,0.02104032729398013,-0.11221507890122735
1746543889.7978168,1.060912,-0.086376,0.11956,-3.8500000000000005,-0.28,3.43,-0.5073056691992986,0.06078316773816481,-0.13676212741087085
1746543889.8779018,0.85644,-0.047335999999999996,0.084912,-7.840000000000001,14.000000000000002,5.11,-0.5073056691992986,0.06078316773816481,-0.13676212741087085
1746543889.961972,0.695888,-0.015616,0.0,-6.16,6.370000000000001,-6.16,-0.5073056691992986,0.06078316773816481,-0.13676212741087085
1746543890.038081,0.798856,-0.025863999999999998,-0.025863999999999998,-1.7500000000000002,-6.370000000000001,-13.72,-0.5073056691992986,0.06078316773816481,-0.13676212741087085
1746543890.118184,1.00772,-0.050263999999999996,-0.015127999999999999,3.7100000000000004,3.7800000000000002,-8.680000000000001,-0.5073056691992986,0.06078316773816481,-0.13676212741087085
1746543890.198308,1.235128,-0.045384,0.10736,12.81,3.99,-0.28,-0.5073056691992986,0.06078316773816481,-0.13676212741087085
1746543890.2783713,1.053104,0.057096,0.145424,20.650000000000002,1.33,-5.250000000000001,-0.5073056691992986,0.06078316773816481,-0.13676212741087085
1746543890.36492,1.062864,0.08295999999999999,0.137128,18.340000000000003,-7.98,-14.280000000000001,-0.5073056691992986,0.06078316773816481,-0.13676212741087085
1746543890.438557,0.8042239999999999,0.054168,0.018543999999999998,14.560000000000002,-11.690000000000001,-7.5600000000000005,-0.5073056691992986,0.06078316773816481,-0.13676212741087085
1746543890.518662,0.753472,0.035623999999999996,-0.035623999999999996,9.24,-13.23,13.160000000000002,-0.5073056691992986,0.06078316773816481,-0.13676212741087085
1746543890.5987422,0.91744,0.04392,-0.05856,6.790000000000001,-14.840000000000002,15.330000000000002,-0.5073056691992986,0.06078316773816481,-0.13676212741087085
1746543890.678816,1.12484,0.010248,-0.072224,-1.2600000000000002,-26.810000000000002,3.5000000000000004,-0.5073056691992986,0.06078316773816481,-0.13676212741087085
1746543890.7589192,1.387872,-0.026352,0.04636,-14.490000000000002,-34.86000000000001,-15.190000000000001,-0.5073056691992986,0.06078316773816481,-0.13676212741087085
1746543890.8429456,1.089704,-0.035623999999999996,0.06539199999999999,-15.05,14.280000000000001,-15.540000000000001,-0.5073056691992986,0.06078316773816481,-0.13676212741087085
1746543890.9190946,0.981856,-0.062464,0.043432,-16.03,23.03,-4.0600000000000005,-0.5073056691992986,0.06078316773816481,-0.13676212741087085
1746543890.999199,0.791048,-0.035623999999999996,-0.0068319999999999995,-14.070000000000002,12.950000000000001,1.7500000000000002,-0.5073056691992986,0.06078316773816481,-0.13676212741087085
1746543891.0792818,0.783728,0.0366,-0.057583999999999996,-6.930000000000001,6.090000000000001,1.61,-0.5073056691992986,0.06078316773816481,-0.13676212741087085
1746543891.159422,0.907192,-0.004392,-0.10638399999999999,-4.550000000000001,5.880000000000001,6.23,-0.5073056691992986,0.06078316773816481,-0.13676212741087085
1746543891.2459693,1.1424079999999999,0.0053679999999999995,0.025376,17.64,-8.680000000000001,-1.4000000000000001,-0.5073056691992986,0.06078316773816481,-0.13676212741087085
1746543891.3195562,1.287344,0.047335999999999996,0.062464,6.23,-8.680000000000001,-1.4000000000000001,-0.5073056691992986,0.06078316773816481,-0.13676212741087085
1746543891.3996446,1.157048,0.037576,0.168848,11.97,14.490000000000002,-0.35000000000000003,-0.4722384570426651,-0.040911747516072475,-0.13208649912331968
1746543891.4797828,0.72712,0.022935999999999998,0.041479999999999996,14.490000000000002,15.47,7.5600000000000005,-0.4722384570426651,-0.040911747516072475,-0.13208649912331968
1746543891.5598505,0.754448,0.041479999999999996,-0.060024,7.5600000000000005,-8.89,8.120000000000001,-0.4722384570426651,-0.040911747516072475,-0.13208649912331968
1746543891.6399355,0.854976,0.055144,-0.13078399999999998,1.1900000000000002,-6.65,5.880000000000001,-0.4722384570426651,-0.040911747516072475,-0.13208649912331968
1746543891.7239823,1.05652,0.066856,-0.076128,0.28,-8.89,1.4000000000000001,-0.4722384570426651,-0.040911747516072475,-0.13208649912331968
1746543891.8001368,1.257576,-0.008784,0.001952,-2.1700000000000004,-21.07,-1.12,-0.4722384570426651,-0.040911747516072475,-0.13208649912331968
1746543891.8802204,1.294664,-0.042943999999999996,0.101992,-12.110000000000001,-4.970000000000001,3.99,-0.4722384570426651,-0.040911747516072475,-0.13208649912331968
1746543891.9603028,1.06872,-0.046848,0.135664,-15.330000000000002,16.450000000000003,6.16,-0.4722384570426651,-0.040911747516072475,-0.13208649912331968
1746543892.040417,0.856928,0.00244,0.0854,-17.5,9.38,-4.48,-0.4722384570426651,-0.040911747516072475,-0.13208649912331968
1746543892.1268559,0.722728,0.038551999999999996,-0.019032,-20.44,-3.22,-12.46,-0.4722384570426651,-0.040911747516072475,-0.13208649912331968
1746543892.2006216,0.7759199999999999,0.003904,-0.07417599999999999,-17.92,-6.370000000000001,-3.5700000000000003,-0.4722384570426651,-0.040911747516072475,-0.13208649912331968
1746543892.2806935,0.996984,-0.015127999999999999,-0.098576,-8.75,2.3800000000000003,0.56,-0.4722384570426651,-0.040911747516072475,-0.13208649912331968
1746543892.3607762,1.249768,0.042943999999999996,0.022448,3.7800000000000002,3.1500000000000004,-6.65,-0.4722384570426651,-0.040911747516072475,-0.13208649912331968
1746543892.4408975,1.34444,0.081984,0.09272,9.870000000000001,-9.590000000000002,-16.1,-0.4722384570426651,-0.040911747516072475,-0.13208649912331968
1746543892.5209749,0.989664,0.057583999999999996,0.101016,9.31,11.48,6.090000000000001,-0.4722384570426651,-0.040911747516072475,-0.13208649912331968
1746543892.6028867,0.68808,0.019032,-0.001952,6.0200000000000005,18.200000000000003,15.05,-0.4722384570426651,-0.040911747516072475,-0.13208649912331968
1746543892.6811655,0.723704,0.028791999999999998,-0.077592,1.4000000000000001,-6.44,11.48,-0.4722384570426651,-0.040911747516072475,-0.13208649912331968
1746543892.761296,0.92476,0.089792,-0.102968,2.5200000000000005,-3.5000000000000004,7.840000000000001,-0.4722384570426651,-0.040911747516072475,-0.13208649912331968
1746543892.8413563,1.175104,0.07076,0.020984,-0.21000000000000002,1.61,8.190000000000001,-0.4722384570426651,-0.040911747516072475,-0.13208649912331968
1746543892.9214535,1.338584,0.008784,0.038064,-7.420000000000001,-8.540000000000001,7.630000000000001,-0.4710695499707773,0.004675628287551139,-0.11046171829339567
1746543893.005721,1.194624,-0.036112,0.09272,-16.8,-1.2600000000000002,8.610000000000001,-0.4710695499707773,0.004675628287551139,-0.11046171829339567
1746543893.081651,1.084336,-0.09467199999999999,0.09028,-20.930000000000003,-1.05,-2.45,-0.4710695499707773,0.004675628287551139,-0.11046171829339567
1746543893.1617715,0.71248,-0.019032,0.003904,-18.970000000000002,8.680000000000001,-11.9,-0.4710695499707773,0.004675628287551139,-0.11046171829339567
1746543893.241871,0.671976,0.008296,-0.045384,-12.250000000000002,-6.090000000000001,-5.95,-0.4710695499707773,0.004675628287551139,-0.11046171829339567
1746543893.321951,0.88328,-0.013663999999999999,-0.073688,-1.54,-5.8100000000000005,3.6400000000000006,-0.4710695499707773,0.004675628287551139,-0.11046171829339567
1746543893.4085066,1.199992,0.016592,-0.040015999999999996,7.140000000000001,-0.42000000000000004,5.670000000000001,-0.4710695499707773,0.004675628287551139,-0.11046171829339567
1746543893.4821467,1.272704,0.05368,0.018543999999999998,9.030000000000001,-7.490000000000001,-1.54,-0.4710695499707773,0.004675628287551139,-0.11046171829339567
1746543893.5622385,1.250744,0.048799999999999996,0.125416,14.420000000000002,-9.450000000000001,-9.24,-0.4710695499707773,0.004675628287551139,-0.11046171829339567
1746543893.6496794,0.771528,0.059536,0.049288,21.700000000000003,31.01,5.32,-0.4710695499707773,0.004675628287551139,-0.11046171829339567
1746543893.7224088,0.623664,-0.012199999999999999,-0.05368,15.120000000000001,14.770000000000001,8.82,-0.4710695499707773,0.004675628287551139,-0.11046171829339567
1746543893.8024964,0.876448,-0.016104,-0.101992,11.340000000000002,-3.0100000000000002,11.270000000000001,-0.4710695499707773,0.004675628287551139,-0.11046171829339567
1746543893.8843684,1.100928,0.00732,0.01464,2.1700000000000004,-8.47,8.680000000000001,-0.4710695499707773,0.004675628287551139,-0.11046171829339567
1746543893.962671,1.24684,-0.039528,0.025863999999999998,-11.340000000000002,-21.630000000000003,1.12,-0.4710695499707773,0.004675628287551139,-0.11046171829339567
1746543894.042763,1.30296,-0.056119999999999996,0.050752,-20.160000000000004,-9.520000000000001,0.07,-0.4710695499707773,0.004675628287551139,-0.11046171829339567
1746543894.1228497,1.123864,-0.086376,0.102968,-17.430000000000003,12.670000000000002,-3.3600000000000003,-0.4710695499707773,0.004675628287551139,-0.11046171829339567
1746543894.2029815,0.850584,-0.040015999999999996,0.079544,-14.840000000000002,13.440000000000001,-9.8,-0.4710695499707773,0.004675628287551139,-0.11046171829339567
1746543894.287338,0.687592,0.013663999999999999,-0.02684,-15.820000000000002,-7.3500000000000005,-11.620000000000001,-0.4710695499707773,0.004675628287551139,-0.11046171829339567
1746543894.363132,0.7832399999999999,0.000976,-0.096136,-13.160000000000002,-12.88,-5.670000000000001,-0.4710695499707773,0.004675628287551139,-0.11046171829339567
1746543894.4432404,1.077016,-0.000976,-0.055144,-7.7700000000000005,-5.040000000000001,3.6400000000000006,-0.4710695499707773,0.004675628287551139,-0.11046171829339567
1746543894.5306919,1.24196,0.022935999999999998,0.010248,1.8200000000000003,-7.910000000000001,-2.7300000000000004,-0.4979544126241964,-0.008182349503214495,-0.09117475160724722
1746543894.6034243,1.36884,0.052704,0.12688,10.430000000000001,-2.8000000000000003,-8.33,-0.4979544126241964,-0.008182349503214495,-0.09117475160724722
1746543894.6835024,1.114592,0.079544,0.098576,19.110000000000003,8.96,-1.05,-0.4979544126241964,-0.008182349503214495,-0.09117475160724722
1746543894.765331,0.615368,-0.01464,-0.045871999999999996,24.150000000000002,21.07,14.490000000000002,-0.4979544126241964,-0.008182349503214495,-0.09117475160724722
1746543894.843688,0.777872,-0.011712,-0.07710399999999999,19.180000000000003,-4.550000000000001,18.48,-0.4979544126241964,-0.008182349503214495,-0.09117475160724722
1746543894.9237692,1.087264,-0.036112,-0.061488,6.0200000000000005,-5.8100000000000005,13.790000000000001,-0.4979544126241964,-0.008182349503214495,-0.09117475160724722
1746543895.0038548,1.225856,-0.042943999999999996,0.036112,-8.96,5.040000000000001,-1.1900000000000002,-0.4979544126241964,-0.008182349503214495,-0.09117475160724722
1746543895.0839353,1.400072,-0.093208,0.162016,-18.69,-0.42000000000000004,-3.43,-0.4979544126241964,-0.008182349503214495,-0.09117475160724722
1746543895.1682053,1.101904,-0.08881599999999999,0.16348,-17.92,7.5600000000000005,1.54,-0.4979544126241964,-0.008182349503214495,-0.09117475160724722
1746543895.2442172,0.861808,-0.062464,0.122,-17.360000000000003,0.77,0.42000000000000004,-0.4979544126241964,-0.008182349503214495,-0.09117475160724722
1746543895.3235097,0.648064,0.00732,-0.001952,-18.270000000000003,-4.550000000000001,-11.760000000000002,-0.4979544126241964,-0.008182349503214495,-0.09117475160724722
1746543895.4043293,0.744688,0.025863999999999998,-0.08588799999999999,-15.820000000000002,-13.860000000000001,-12.39,-0.4979544126241964,-0.008182349503214495,-0.09117475160724722
1746543895.4844291,1.037976,-0.024399999999999998,-0.110288,-14.840000000000002,-6.930000000000001,-6.370000000000001,-0.4979544126241964,-0.008182349503214495,-0.09117475160724722
1746543895.5645306,1.2336639999999999,0.00488,-0.004392,-4.340000000000001,-0.49000000000000005,-8.260000000000002,-0.4979544126241964,-0.008182349503214495,-0.09117475160724722
1746543895.644587,1.389336,0.044407999999999996,0.126392,6.510000000000001,-4.2700000000000005,-9.73,-0.4979544126241964,-0.008182349503214495,-0.09117475160724722
1746543895.7246883,1.209264,0.078568,0.172752,17.92,3.99,-1.8900000000000001,-0.4979544126241964,-0.008182349503214495,-0.09117475160724722
1746543895.8121278,0.934032,0.07710399999999999,0.15128,24.64,9.520000000000001,10.920000000000002,-0.4979544126241964,-0.008182349503214495,-0.09117475160724722
1746543895.8848836,0.746152,0.012688,-0.08588799999999999,18.48,-6.86,13.440000000000001,-0.4979544126241964,-0.008182349503214495,-0.09117475160724722
1746543895.9649441,0.908656,-0.003904,-0.145912,8.75,-2.31,10.57,-0.4979544126241964,-0.008182349503214495,-0.09117475160724722
1746543896.046826,1.202432,-0.041479999999999996,-0.017568,-3.43,-4.69,2.8000000000000003,-0.4687317358270017,0.012857977790765635,-0.1163062536528346
1746543896.125121,1.331264,-0.096624,0.07124799999999999,-11.55,0.9100000000000001,-3.5700000000000003,-0.4687317358270017,0.012857977790765635,-0.1163062536528346
1746543896.2052615,1.2385439999999999,-0.057096,0.117608,-15.330000000000002,9.24,-8.96,-0.4687317358270017,0.012857977790765635,-0.1163062536528346
1746543896.2853699,1.109224,-0.062952,0.11516799999999999,-14.350000000000001,6.370000000000001,-4.41,-0.4687317358270017,0.012857977790765635,-0.1163062536528346
1746543896.3654306,0.737368,-0.034159999999999996,0.020984,-14.63,10.850000000000001,-2.8000000000000003,-0.4687317358270017,0.012857977790765635,-0.1163062536528346
1746543896.4645016,0.664656,-0.00976,-0.059536,-10.850000000000001,-7.630000000000001,-5.74,-0.4687317358270017,0.012857977790765635,-0.1163062536528346
1746543896.5265338,0.833016,-0.037576,-0.10004,-9.940000000000001,-12.040000000000001,-1.9600000000000002,-0.4687317358270017,0.012857977790765635,-0.1163062536528346
1746543896.6056907,1.1834,-0.015616,-0.00732,-3.6400000000000006,-4.130000000000001,-0.42000000000000004,-0.4687317358270017,0.012857977790765635,-0.1163062536528346
1746543896.6857865,1.321504,0.035623999999999996,0.053191999999999996,5.040000000000001,-3.5700000000000003,-5.74,-0.4687317358270017,0.012857977790765635,-0.1163062536528346
1746543896.7658587,1.229272,0.082472,0.103944,11.97,-1.2600000000000002,-8.540000000000001,-0.4687317358270017,0.012857977790765635,-0.1163062536528346
1746543896.8459566,1.15168,0.064416,0.122976,14.560000000000002,-2.24,2.5900000000000003,-0.4687317358270017,0.012857977790765635,-0.1163062536528346
1746543896.9299595,0.762744,0.037576,0.052704,17.080000000000002,3.5000000000000004,12.250000000000002,-0.4687317358270017,0.012857977790765635,-0.1163062536528346
1746543897.0061417,0.652944,0.010248,-0.088328,13.23,-6.090000000000001,16.59,-0.4687317358270017,0.012857977790765635,-0.1163062536528346
1746543897.086227,1.079944,0.009271999999999999,-0.048799999999999996,3.1500000000000004,-4.2,7.420000000000001,-0.4687317358270017,0.012857977790765635,-0.1163062536528346
1746543897.1663604,1.252208,-0.069784,0.00976,-11.830000000000002,-13.090000000000002,-1.12,-0.4687317358270017,0.012857977790765635,-0.1163062536528346
1746543897.2464638,1.362984,-0.098088,0.12932,-22.540000000000003,-6.580000000000001,-7.630000000000001,-0.4687317358270017,0.012857977790765635,-0.1163062536528346
1746543897.332906,1.081896,-0.115656,0.10248,-23.94,16.8,-9.870000000000001,-0.4687317358270017,0.012857977790765635,-0.1163062536528346
1746543897.406626,0.882304,-0.083448,0.059536,-16.8,20.44,-2.66,-0.4687317358270017,0.012857977790765635,-0.1163062536528346
1746543897.486707,0.6563599999999999,0.021471999999999998,-0.026352,-9.940000000000001,6.370000000000001,-5.74,-0.4687317358270017,0.012857977790765635,-0.1163062536528346
1746543897.5741258,0.76616,0.033672,-0.099552,-7.5600000000000005,-10.57,-7.840000000000001,-0.4687317358270017,0.012857977790765635,-0.1163062536528346
1746543897.6468801,1.104832,0.024888,-0.02928,-4.69,0.56,-0.56,-0.4792518994739918,0.008182349503214495,-0.10227936879018118
1746543897.726964,1.281,0.020007999999999998,0.07710399999999999,2.1700000000000004,7.140000000000001,-12.110000000000001,-0.4792518994739918,0.008182349503214495,-0.10227936879018118
1746543897.808754,1.338584,0.025863999999999998,0.101992,9.8,-3.8500000000000005,-21.42,-0.4792518994739918,0.008182349503214495,-0.10227936879018118
1746543897.8871367,1.174128,0.079544,0.121512,16.380000000000003,-4.130000000000001,-4.69,-0.4792518994739918,0.008182349503214495,-0.10227936879018118
1746543897.967221,0.8510719999999999,0.034648,0.105408,15.750000000000002,7.3500000000000005,17.360000000000003,-0.4792518994739918,0.008182349503214495,-0.10227936879018118
1746543898.0473163,0.621224,-0.011712,-0.023912,18.830000000000002,1.4000000000000001,19.53,-0.4792518994739918,0.008182349503214495,-0.10227936879018118
1746543898.1273975,0.737368,0.012688,-0.082472,12.180000000000001,1.4000000000000001,16.240000000000002,-0.4792518994739918,0.008182349503214495,-0.10227936879018118
1746543898.2116938,1.233176,-0.023912,0.041479999999999996,0.21000000000000002,3.08,-0.6300000000000001,-0.4792518994739918,0.008182349503214495,-0.10227936879018118
1746543898.2875905,1.36884,-0.099552,0.09028,-18.200000000000003,-0.7000000000000001,-5.250000000000001,-0.4792518994739918,0.008182349503214495,-0.10227936879018118
1746543898.367678,1.1326479999999999,-0.13419999999999999,0.141032,-26.250000000000004,7.000000000000001,1.8200000000000003,-0.4792518994739918,0.008182349503214495,-0.10227936879018118
1746543898.4567661,0.94428,-0.094184,0.108824,-22.12,-7.210000000000001,-6.580000000000001,-0.4792518994739918,0.008182349503214495,-0.10227936879018118
1746543898.527879,0.679296,-0.027816,0.00244,-24.78,-8.96,-11.270000000000001,-0.4792518994739918,0.008182349503214495,-0.10227936879018118
1746543898.6079664,0.720288,0.032208,-0.03904,-22.540000000000003,-12.81,-11.270000000000001,-0.4792518994739918,0.008182349503214495,-0.10227936879018118
1746543898.689262,0.96624,0.021471999999999998,-0.06539199999999999,-18.340000000000003,-0.8400000000000001,-4.2700000000000005,-0.4792518994739918,0.008182349503214495,-0.10227936879018118
1746543898.7681408,1.22,0.081008,0.055632,-3.3600000000000003,3.2900000000000005,-0.9100000000000001,-0.4792518994739918,0.008182349503214495,-0.10227936879018118
1746543898.8482585,1.3620079999999999,0.070272,0.066856,11.410000000000002,-8.680000000000001,-3.0100000000000002,-0.4792518994739918,0.008182349503214495,-0.10227936879018118
1746543898.9283376,1.152656,0.071736,0.088328,26.810000000000002,10.080000000000002,-6.86,-0.4792518994739918,0.008182349503214495,-0.10227936879018118
1746543899.0084176,1.027728,0.00976,0.102968,28.490000000000002,16.17,0.9800000000000001,-0.4792518994739918,0.008182349503214495,-0.10227936879018118
1746543899.0924466,0.692472,-0.001952,0.003904,26.53,14.770000000000001,-0.42000000000000004,-0.4792518994739918,0.008182349503214495,-0.10227936879018118
1746543899.1686556,0.673928,0.019032,-0.067832,22.400000000000002,-11.55,5.11,-0.4792518994739918,0.008182349503214495,-0.10227936879018118
1746543899.2487564,0.95648,0.035623999999999996,-0.10052799999999999,4.9,-5.390000000000001,23.87,-0.4804208065458796,-0.008182349503214495,-0.12039742840444184
1746543899.32886,1.3127199999999999,-0.06344,-0.00488,-6.16,-7.07,9.31,-0.4804208065458796,-0.008182349503214495,-0.12039742840444184
1746543899.4089143,1.175104,-0.122,0.130296,-15.05,17.64,-2.0300000000000002,-0.4804208065458796,-0.008182349503214495,-0.12039742840444184
1746543899.4890084,0.9882,-0.090768,0.120536,-15.890000000000002,13.020000000000001,-8.4,-0.4804208065458796,-0.008182349503214495,-0.12039742840444184
1746543899.5690904,0.724192,-0.041968,0.023912,-21.770000000000003,11.55,-12.46,-0.4804208065458796,-0.008182349503214495,-0.12039742840444184
1746543899.6491778,0.7549359999999999,-0.011712,-0.042456,-25.55,-3.7800000000000002,-10.920000000000002,-0.4804208065458796,-0.008182349503214495,-0.12039742840444184
1746543899.7366467,0.930128,0.017079999999999998,-0.031232,-21.98,-11.340000000000002,-5.11,-0.4804208065458796,-0.008182349503214495,-0.12039742840444184
1746543899.8093443,1.18096,0.01464,0.036112,-11.13,-9.24,4.9,-0.4804208065458796,-0.008182349503214495,-0.12039742840444184
1746543899.8894444,1.305888,-0.0034159999999999998,0.036112,9.73,-7.910000000000001,4.41,-0.4804208065458796,-0.008182349503214495,-0.12039742840444184
1746543899.9712644,1.2214639999999999,0.093696,0.122,25.410000000000004,6.16,0.56,-0.4804208065458796,-0.008182349503214495,-0.12039742840444184
1746543900.0496137,1.040416,0.089792,0.105408,23.380000000000003,5.53,2.31,-0.4804208065458796,-0.008182349503214495,-0.12039742840444184
1746543900.1297002,0.730536,0.0854,0.051727999999999996,24.71,16.450000000000003,-1.4000000000000001,-0.4804208065458796,-0.008182349503214495,-0.12039742840444184
1746543900.2098768,0.691008,0.041479999999999996,-0.028791999999999998,24.290000000000003,0.35000000000000003,12.32,-0.4804208065458796,-0.008182349503214495,-0.12039742840444184
1746543900.2891812,0.891576,-0.016104,-0.061975999999999996,21.42,-7.7700000000000005,19.39,-0.4804208065458796,-0.008182349503214495,-0.12039742840444184
1746543900.372651,1.253184,-0.096136,-0.018543999999999998,-3.2900000000000005,-16.310000000000002,-5.040000000000001,-0.4804208065458796,-0.008182349503214495,-0.12039742840444184
1746543900.4501054,1.25172,-0.091256,0.115656,-16.8,-3.43,-7.7700000000000005,-0.4804208065458796,-0.008182349503214495,-0.12039742840444184
1746543900.530186,1.107272,-0.087352,0.12395199999999999,-20.860000000000003,8.4,-12.600000000000001,-0.4804208065458796,-0.008182349503214495,-0.12039742840444184
1746543900.6176736,0.780312,-0.042456,0.045384,-22.96,15.47,-13.860000000000001,-0.4804208065458796,-0.008182349503214495,-0.12039742840444184
1746543900.6904063,0.662216,0.00488,-0.040992,-19.250000000000004,-0.42000000000000004,-9.520000000000001,-0.4804208065458796,-0.008182349503214495,-0.12039742840444184
1746543900.770491,0.835456,0.032208,-0.074664,-12.46,-5.670000000000001,-6.090000000000001,-0.47808299240210406,-0.024547048509643482,-0.1005260081823495
1746543900.850585,1.1697359999999999,0.008784,0.045384,-7.630000000000001,3.7800000000000002,1.05,-0.47808299240210406,-0.024547048509643482,-0.1005260081823495
1746543900.930682,1.326384,0.027327999999999998,0.089792,1.8200000000000003,1.33,-1.4000000000000001,-0.47808299240210406,-0.024547048509643482,-0.1005260081823495
1746543901.010796,1.24928,0.086864,0.14152,12.600000000000001,1.05,-4.69,-0.47808299240210406,-0.024547048509643482,-0.1005260081823495
1746543901.0908406,1.102392,0.108336,0.127368,18.270000000000003,0.07,4.2,-0.47808299240210406,-0.024547048509643482,-0.1005260081823495
1746543901.1709723,0.7290719999999999,0.089792,0.03172,24.150000000000002,13.440000000000001,7.7700000000000005,-0.47808299240210406,-0.024547048509643482,-0.1005260081823495
1746543901.2535481,0.69296,0.06588,-0.033184,29.120000000000005,4.2700000000000005,9.030000000000001,-0.47808299240210406,-0.024547048509643482,-0.1005260081823495
1746543901.3304043,0.845704,0.009271999999999999,-0.053191999999999996,20.930000000000003,-1.4000000000000001,14.420000000000002,-0.47808299240210406,-0.024547048509643482,-0.1005260081823495
1746543901.4112363,1.11264,0.01464,0.027327999999999998,7.07,-7.7700000000000005,3.8500000000000005,-0.47808299240210406,-0.024547048509643482,-0.1005260081823495
1746543901.498685,1.289784,-0.06539199999999999,0.055632,-17.78,2.66,-0.9800000000000001,-0.47808299240210406,-0.024547048509643482,-0.1005260081823495
1746543901.5714152,1.0735999999999999,-0.101504,0.125904,-14.280000000000001,4.48,-4.48,-0.47808299240210406,-0.024547048509643482,-0.1005260081823495
1746543901.6515117,0.7598159999999999,-0.007808,0.048799999999999996,-14.000000000000002,7.98,-9.590000000000002,-0.47808299240210406,-0.024547048509643482,-0.1005260081823495
1746543901.731596,0.691496,0.03172,-0.027327999999999998,-16.240000000000002,-5.8100000000000005,-10.22,-0.47808299240210406,-0.024547048509643482,-0.1005260081823495
1746543901.8116834,0.887184,0.003904,-0.06588,-16.66,-10.290000000000001,-7.3500000000000005,-0.47808299240210406,-0.024547048509643482,-0.1005260081823495
1746543901.8917763,1.15412,-0.022448,-0.002928,-12.46,-2.9400000000000004,1.61,-0.47808299240210406,-0.024547048509643482,-0.1005260081823495
1746543901.9718528,1.297592,0.045871999999999996,0.044407999999999996,0.7000000000000001,-6.65,-0.9800000000000001,-0.47808299240210406,-0.024547048509643482,-0.1005260081823495
1746543902.0519388,1.245864,0.10492,0.158112,12.81,3.8500000000000005,-4.83,-0.47808299240210406,-0.024547048509643482,-0.1005260081823495
1746543902.135974,1.0291919999999999,0.102968,0.127856,16.87,4.83,1.9600000000000002,-0.47808299240210406,-0.024547048509643482,-0.1005260081823495
1746543902.2121508,0.74664,0.040992,0.021471999999999998,25.130000000000003,9.24,11.410000000000002,-0.47808299240210406,-0.024547048509643482,-0.1005260081823495
1746543902.29224,0.709552,-0.001464,-0.039528,25.340000000000003,-0.28,20.23,-0.47808299240210406,-0.024547048509643482,-0.1005260081823495
1746543902.3723195,0.826184,0.018543999999999998,-0.091256,20.51,-1.8900000000000001,23.03,-0.4605493863237873,-0.008182349503214495,-0.11279953243717125
1746543902.4524295,1.128256,-0.038551999999999996,-0.014152,5.390000000000001,-1.33,13.790000000000001,-0.4605493863237873,-0.008182349503214495,-0.11279953243717125
1746543902.5325036,1.28832,-0.059536,0.05124,-10.290000000000001,-4.2700000000000005,-5.8100000000000005,-0.4605493863237873,-0.008182349503214495,-0.11279953243717125
1746543902.612587,1.3249199999999999,-0.108824,0.16836,-23.730000000000004,8.540000000000001,-11.410000000000002,-0.4605493863237873,-0.008182349503214495,-0.11279953243717125
1746543902.6926694,0.772016,-0.059536,0.057583999999999996,-14.070000000000002,4.0600000000000005,-13.23,-0.4605493863237873,-0.008182349503214495,-0.11279953243717125
1746543902.7727673,0.672952,0.012199999999999999,-0.027816,-14.770000000000001,-9.100000000000001,-10.500000000000002,-0.4605493863237873,-0.008182349503214495,-0.11279953243717125
1746543902.852876,0.833504,0.003904,-0.081984,-10.850000000000001,-9.38,-5.040000000000001,-0.4605493863237873,-0.008182349503214495,-0.11279953243717125
1746543902.9329357,1.101904,0.006344,-0.00488,-4.41,-0.6300000000000001,1.8900000000000001,-0.4605493863237873,-0.008182349503214495,-0.11279953243717125
1746543903.0170114,1.2263439999999999,0.078568,0.06539199999999999,7.98,-1.1900000000000002,1.2600000000000002,-0.4605493863237873,-0.008182349503214495,-0.11279953243717125
1746543903.0930948,1.315648,0.092232,0.17812,15.260000000000002,1.05,-5.460000000000001,-0.4605493863237873,-0.008182349503214495,-0.11279953243717125
1746543903.1732273,1.06384,0.026352,0.182024,17.71,12.250000000000002,3.0100000000000002,-0.4605493863237873,-0.008182349503214495,-0.11279953243717125
1746543903.2536006,0.82472,0.025376,0.095648,21.98,6.720000000000001,1.7500000000000002,-0.4605493863237873,-0.008182349503214495,-0.11279953243717125
1746543903.333403,0.68564,-0.013176,-0.01952,14.700000000000001,0.14,8.89,-0.4605493863237873,-0.008182349503214495,-0.11279953243717125
1746543903.4346104,0.792024,0.013663999999999999,-0.072712,10.920000000000002,-4.340000000000001,17.220000000000002,-0.4605493863237873,-0.008182349503214495,-0.11279953243717125
1746543903.4966443,1.079944,0.040504,-0.067344,0.14,1.8900000000000001,12.040000000000001,-0.4605493863237873,-0.008182349503214495,-0.11279953243717125
1746543903.5736954,1.211704,-0.05368,0.034159999999999996,-12.88,1.12,-6.580000000000001,-0.4605493863237873,-0.008182349503214495,-0.11279953243717125
1746543903.6537797,1.433744,-0.08052,0.127856,-14.000000000000002,-7.210000000000001,-4.48,-0.4605493863237873,-0.008182349503214495,-0.11279953243717125
1746543903.733869,1.145824,-0.10248,0.174704,-7.7700000000000005,18.62,2.0300000000000002,-0.4605493863237873,-0.008182349503214495,-0.11279953243717125
1746543903.8139753,0.6661199999999999,0.007808,-0.000488,-14.700000000000001,-11.410000000000002,-9.940000000000001,-0.4605493863237873,-0.008182349503214495,-0.11279953243717125
1746543903.8996494,0.753472,0.002928,-0.052216,-18.41,-22.330000000000002,-8.82,-0.451198129748685,0.08182349503214495,0.05201636469900643
1746543903.9741395,0.993568,-0.057096,-0.00488,-16.310000000000002,-9.520000000000001,-3.5000000000000004,-0.451198129748685,0.08182349503214495,0.05201636469900643
1746543904.054224,1.1956,-0.00732,0.058072,-1.61,6.510000000000001,-4.62,-0.451198129748685,0.08182349503214495,0.05201636469900643
1746543904.1343122,1.372256,0.074664,0.12102399999999999,14.280000000000001,10.500000000000002,-1.8200000000000003,-0.451198129748685,0.08182349503214495,0.05201636469900643
1746543904.2144425,1.157536,0.094184,0.17324,20.37,24.150000000000002,3.6400000000000006,-0.451198129748685,0.08182349503214495,0.05201636469900643
1746543904.301863,0.972584,0.064904,0.157624,20.720000000000002,12.180000000000001,4.970000000000001,-0.451198129748685,0.08182349503214495,0.05201636469900643
1746543904.374598,0.676856,0.044407999999999996,0.028304,21.28,0.9800000000000001,5.6000000000000005,-0.451198129748685,0.08182349503214495,0.05201636469900643
1746543904.454704,0.721752,0.001464,-0.033184,16.310000000000002,-18.55,16.1,-0.451198129748685,0.08182349503214495,0.05201636469900643
1746543904.5347795,0.906704,-0.00244,-0.084912,13.23,-11.06,14.63,-0.451198129748685,0.08182349503214495,0.05201636469900643
1746543904.6148624,1.2263439999999999,-0.041968,0.038064,-1.8900000000000001,-2.24,4.340000000000001,-0.451198129748685,0.08182349503214495,0.05201636469900643
1746543904.694953,1.348832,-0.086376,0.101992,-20.44,-0.77,-2.5200000000000005,-0.451198129748685,0.08182349503214495,0.05201636469900643
1746543904.7799282,1.120936,-0.09759999999999999,0.145424,-23.380000000000003,6.0200000000000005,-6.720000000000001,-0.451198129748685,0.08182349503214495,0.05201636469900643
1746543904.8551233,1.084336,-0.062464,0.13078399999999998,-16.1,-13.370000000000001,-5.040000000000001,-0.451198129748685,0.08182349503214495,0.05201636469900643
1746543904.9352252,0.69052,0.023912,-0.023912,-17.01,-9.31,-15.260000000000002,-0.451198129748685,0.08182349503214495,0.05201636469900643
1746543905.0153072,0.856928,0.01464,-0.064904,-16.59,-3.5700000000000003,-16.94,-0.451198129748685,0.08182349503214495,0.05201636469900643
1746543905.0953908,1.113616,0.009271999999999999,0.018056,-9.31,16.380000000000003,-13.650000000000002,-0.451198129748685,0.08182349503214495,0.05201636469900643
1746543905.1831312,1.301496,0.07076,0.10248,1.05,16.87,-13.090000000000002,-0.451198129748685,0.08182349503214495,0.05201636469900643
1746543905.2556117,1.244888,0.136152,0.207888,8.96,21.490000000000002,-6.44,-0.451198129748685,0.08182349503214495,0.05201636469900643
1746543905.3356805,1.106296,0.14884,0.2074,16.03,8.05,5.670000000000001,-0.451198129748685,0.08182349503214495,0.05201636469900643
1746543905.4303257,0.747616,0.143472,0.162504,25.55,3.99,10.780000000000001,-0.451198129748685,0.08182349503214495,0.05201636469900643
1746543905.4958687,0.681736,0.043432,-0.015127999999999999,19.040000000000003,-17.220000000000002,17.92,-0.43834015195791937,-0.026884862653419054,-0.2016364699006429
1746543905.57595,0.818376,0.038064,-0.050263999999999996,16.87,-21.42,20.23,-0.43834015195791937,-0.026884862653419054,-0.2016364699006429
1746543905.6628244,1.096536,0.093208,-0.038551999999999996,12.81,-12.88,10.080000000000002,-0.43834015195791937,-0.026884862653419054,-0.2016364699006429
1746543905.7361195,1.26392,0.012199999999999999,0.025376,-4.2700000000000005,-8.89,3.6400000000000006,-0.43834015195791937,-0.026884862653419054,-0.2016364699006429
1746543905.816207,1.314672,-0.021471999999999998,0.14005599999999999,-13.020000000000001,14.700000000000001,3.1500000000000004,-0.43834015195791937,-0.026884862653419054,-0.2016364699006429
1746543905.896289,1.105808,-0.055144,0.185928,-12.180000000000001,19.46,-0.56,-0.43834015195791937,-0.026884862653419054,-0.2016364699006429
1746543905.9764097,0.810568,-0.024399999999999998,0.120536,-13.090000000000002,8.82,-5.040000000000001,-0.43834015195791937,-0.026884862653419054,-0.2016364699006429
1746543906.0638354,0.81008,0.008296,-0.036112,-17.64,-15.330000000000002,-9.170000000000002,-0.43834015195791937,-0.026884862653419054,-0.2016364699006429
1746543906.136566,1.052616,-0.032208,-0.040015999999999996,-15.540000000000001,-5.53,-2.9400000000000004,-0.43834015195791937,-0.026884862653419054,-0.2016364699006429
1746543906.2166767,1.27124,0.022935999999999998,0.078568,-3.1500000000000004,0.35000000000000003,2.3800000000000003,-0.43834015195791937,-0.026884862653419054,-0.2016364699006429
1746543906.296743,1.326384,0.097112,0.155184,9.100000000000001,8.96,2.1,-0.43834015195791937,-0.026884862653419054,-0.2016364699006429
1746543906.3768644,1.11752,0.112728,0.17812,14.21,14.000000000000002,-2.1,-0.43834015195791937,-0.026884862653419054,-0.2016364699006429
1746543906.4569461,0.859856,0.084912,0.121512,17.85,6.930000000000001,0.77,-0.43834015195791937,-0.026884862653419054,-0.2016364699006429
1746543906.5419202,0.670024,0.042456,-0.001464,20.23,3.9200000000000004,8.47,-0.43834015195791937,-0.026884862653419054,-0.2016364699006429
1746543906.6171098,0.7549359999999999,0.067344,-0.040504,20.3,0.49000000000000005,16.240000000000002,-0.43834015195791937,-0.026884862653419054,-0.2016364699006429
1746543906.6971958,1.06872,0.02928,-0.012688,17.5,-3.1500000000000004,11.270000000000001,-0.43834015195791937,-0.026884862653419054,-0.2016364699006429
1746543906.7773082,1.199504,-0.038551999999999996,0.06831999999999999,3.8500000000000005,-12.600000000000001,-1.05,-0.43834015195791937,-0.026884862653419054,-0.2016364699006429
1746543906.8573978,1.375184,-0.084424,0.142008,-6.16,-15.96,-9.24,-0.43834015195791937,-0.026884862653419054,-0.2016364699006429
1746543906.9447446,1.115568,-0.07417599999999999,0.191296,-3.5000000000000004,9.870000000000001,-21.000000000000004,-0.43834015195791937,-0.026884862653419054,-0.2016364699006429
1746543907.017565,0.920856,-0.028304,0.17177599999999998,-6.44,6.510000000000001,-15.750000000000002,-0.43834015195791937,-0.026884862653419054,-0.2016364699006429
1746543907.0976465,0.655384,0.043432,0.05856,-19.6,0.35000000000000003,-11.690000000000001,-0.47691408533021623,-0.05376972530683811,-0.14377556984219755
1746543907.1777525,0.747128,0.043432,-0.008296,-25.900000000000002,3.2900000000000005,4.0600000000000005,-0.47691408533021623,-0.05376972530683811,-0.14377556984219755
1746543907.2579005,1.229272,0.09516,0.102968,-16.380000000000003,4.41,8.120000000000001,-0.47691408533021623,-0.05376972530683811,-0.14377556984219755
1746543907.3453002,1.377136,0.08003199999999999,0.143472,-7.210000000000001,-7.210000000000001,4.48,-0.47691408533021623,-0.05376972530683811,-0.14377556984219755
1746543907.4226632,1.197552,0.102968,0.184464,4.41,5.880000000000001,-2.3800000000000003,-0.47691408533021623,-0.05376972530683811,-0.14377556984219755
1746543907.4981241,1.003328,0.12444,0.175192,13.440000000000001,9.590000000000002,10.080000000000002,-0.47691408533021623,-0.05376972530683811,-0.14377556984219755
1746543907.5782182,0.6797839999999999,0.045384,0.071736,19.6,7.490000000000001,11.830000000000002,-0.47691408533021623,-0.05376972530683811,-0.14377556984219755
1746543907.6583045,0.684176,0.01952,-0.022448,19.810000000000002,-12.39,19.39,-0.47691408533021623,-0.05376972530683811,-0.14377556984219755
1746543907.7383885,0.884744,0.020984,-0.030744,19.39,-2.45,16.310000000000002,-0.47691408533021623,-0.05376972530683811,-0.14377556984219755
1746543907.8255155,1.1224,-0.000488,0.048312,11.55,9.73,0.35000000000000003,-0.47691408533021623,-0.05376972530683811,-0.14377556984219755
1746543907.8985572,1.319064,-0.061975999999999996,0.156648,-7.3500000000000005,-3.43,-2.1700000000000004,-0.47691408533021623,-0.05376972530683811,-0.14377556984219755
1746543907.9786596,1.234152,-0.061975999999999996,0.254248,-18.830000000000002,9.31,-1.7500000000000002,-0.47691408533021623,-0.05376972530683811,-0.14377556984219755
1746543908.0587392,1.068232,-0.089304,0.217648,-27.090000000000003,6.580000000000001,-7.07,-0.47691408533021623,-0.05376972530683811,-0.14377556984219755
1746543908.1388228,0.7646959999999999,-0.024888,0.113216,-29.26,5.180000000000001,-8.120000000000001,-0.47691408533021623,-0.05376972530683811,-0.14377556984219755
1746543908.2262728,0.714432,0.049776,0.005856,-17.71,-6.86,4.69,-0.47691408533021623,-0.05376972530683811,-0.14377556984219755
1746543908.2990139,0.86376,-0.004392,0.070272,-5.53,-8.47,-0.56,-0.47691408533021623,-0.05376972530683811,-0.14377556984219755
1746543908.3790941,1.248792,-0.000976,0.11516799999999999,11.13,-4.0600000000000005,-5.11,-0.47691408533021623,-0.05376972530683811,-0.14377556984219755
1746543908.4592113,1.206336,0.078568,0.16836,24.71,4.41,-11.97,-0.47691408533021623,-0.05376972530683811,-0.14377556984219755
1746543908.5392787,1.138992,0.095648,0.210816,20.790000000000003,2.7300000000000004,-0.77,-0.47691408533021623,-0.05376972530683811,-0.14377556984219755
1746543908.6193767,0.843752,0.041479999999999996,0.157136,13.72,7.490000000000001,1.7500000000000002,-0.4523670368205728,-0.031560490940970194,-0.15020455873758037
1746543908.7043188,0.654896,0.012688,0.003904,13.3,0.8400000000000001,9.940000000000001,-0.4523670368205728,-0.031560490940970194,-0.15020455873758037
1746543908.7795422,0.781288,0.0068319999999999995,-0.033184,13.440000000000001,-8.190000000000001,20.580000000000002,-0.4523670368205728,-0.031560490940970194,-0.15020455873758037
1746543908.8596349,1.044808,-0.001464,0.01464,10.290000000000001,-8.82,17.430000000000003,-0.4523670368205728,-0.031560490940970194,-0.15020455873758037
1746543908.939717,1.203896,-0.060024,0.09272,-6.16,-12.88,0.8400000000000001,-0.4523670368205728,-0.031560490940970194,-0.15020455873758037
1746543909.019804,1.360056,-0.09028,0.125416,-20.160000000000004,-7.98,-9.030000000000001,-0.4523670368205728,-0.031560490940970194,-0.15020455873758037
1746543909.1071088,1.131184,-0.038064,0.16104,-21.07,14.350000000000001,-12.180000000000001,-0.4523670368205728,-0.031560490940970194,-0.15020455873758037
1746543909.1799896,0.915976,-0.035136,0.13419999999999999,-24.360000000000003,7.490000000000001,-11.690000000000001,-0.4523670368205728,-0.031560490940970194,-0.15020455873758037
1746543909.2600784,0.660752,0.035136,0.010248,-28.980000000000004,-7.000000000000001,-12.040000000000001,-0.4523670368205728,-0.031560490940970194,-0.15020455873758037
1746543909.3401542,0.772992,0.05856,-0.037087999999999996,-26.53,-16.94,-4.41,-0.4523670368205728,-0.031560490940970194,-0.15020455873758037
1746543909.4202676,1.02236,0.011712,-0.037087999999999996,-3.6400000000000006,2.3800000000000003,0.35000000000000003,-0.4523670368205728,-0.031560490940970194,-0.15020455873758037
1746543909.500339,1.3297999999999999,0.045871999999999996,0.163968,7.420000000000001,1.61,-7.3500000000000005,-0.4523670368205728,-0.031560490940970194,-0.15020455873758037
1746543909.5831053,1.14924,0.121512,0.166896,17.78,5.95,-3.5700000000000003,-0.4523670368205728,-0.031560490940970194,-0.15020455873758037
1746543909.660509,0.900848,0.20496,0.181048,23.660000000000004,20.23,-3.5000000000000004,-0.4523670368205728,-0.031560490940970194,-0.15020455873758037
1746543909.7405877,0.642208,0.114192,0.005856,23.8,16.94,1.4700000000000002,-0.4523670368205728,-0.031560490940970194,-0.15020455873758037
1746543909.8206816,0.80764,0.035623999999999996,-0.032208,24.92,-15.260000000000002,17.430000000000003,-0.4523670368205728,-0.031560490940970194,-0.15020455873758037
1746543909.9007797,1.047736,-0.000488,-0.017079999999999998,23.03,-7.490000000000001,19.250000000000004,-0.4523670368205728,-0.031560490940970194,-0.15020455873758037
1746543909.985926,1.21268,-0.047824,0.127368,-0.14,-10.500000000000002,4.9,-0.4523670368205728,-0.031560490940970194,-0.15020455873758037
1746543910.0609477,1.29564,-0.057583999999999996,0.153232,-24.78,-18.55,-16.1,-0.4523670368205728,-0.031560490940970194,-0.15020455873758037
1746543910.1410296,1.104832,-0.045871999999999996,0.138104,-22.89,0.6300000000000001,-19.67,-0.4523670368205728,-0.031560490940970194,-0.15020455873758037
1746543910.2211287,0.941352,0.00488,0.07710399999999999,-13.440000000000001,0.42000000000000004,-10.780000000000001,-0.4804208065458796,-0.03389830508474576,-0.12156633547632963
1746543910.3012152,0.6822239999999999,0.027816,-0.018056,-9.520000000000001,4.130000000000001,-1.7500000000000002,-0.4804208065458796,-0.03389830508474576,-0.12156633547632963
1746543910.3960085,0.780312,0.012688,-0.050752,-9.66,-6.23,3.08,-0.4804208065458796,-0.03389830508474576,-0.12156633547632963
1746543910.4675536,1.020408,0.016592,-0.048799999999999996,-3.99,-8.190000000000001,0.28,-0.4804208065458796,-0.03389830508474576,-0.12156633547632963
1746543910.5414782,1.215608,0.078568,0.048312,6.0200000000000005,-9.31,5.11,-0.4804208065458796,-0.03389830508474576,-0.12156633547632963
1746543910.6215777,1.135576,0.096624,0.135176,18.340000000000003,6.090000000000001,9.590000000000002,-0.4804208065458796,-0.03389830508474576,-0.12156633547632963
1746543910.7016568,0.9003599999999999,0.067832,0.093208,23.380000000000003,17.5,10.780000000000001,-0.4804208065458796,-0.03389830508474576,-0.12156633547632963
1746543910.781746,0.700768,0.016104,0.028791999999999998,20.930000000000003,24.570000000000004,10.010000000000002,-0.4804208065458796,-0.03389830508474576,-0.12156633547632963
1746543910.8691862,0.699304,-0.033184,-0.01952,14.490000000000002,4.69,19.950000000000003,-0.4804208065458796,-0.03389830508474576,-0.12156633547632963
1746543910.9419284,0.992104,-0.051727999999999996,-0.036112,8.610000000000001,-12.250000000000002,22.820000000000004,-0.4804208065458796,-0.03389830508474576,-0.12156633547632963
1746543911.0220156,1.2566,-0.068808,0.03904,-4.0600000000000005,-6.16,5.250000000000001,-0.4804208065458796,-0.03389830508474576,-0.12156633547632963
1746543911.102112,1.358104,-0.113704,0.105896,-21.28,-10.010000000000002,-11.200000000000001,-0.4804208065458796,-0.03389830508474576,-0.12156633547632963
1746543911.1822097,1.150704,-0.11223999999999999,0.154696,-20.3,1.9600000000000002,-4.970000000000001,-0.4804208065458796,-0.03389830508474576,-0.12156633547632963
1746543911.2623076,1.0438319999999999,-0.08588799999999999,0.153232,-13.440000000000001,11.200000000000001,-6.86,-0.4804208065458796,-0.03389830508474576,-0.12156633547632963
1746543911.3423963,0.725168,-0.00732,0.05124,-14.21,19.810000000000002,-8.96,-0.4804208065458796,-0.03389830508474576,-0.12156633547632963
1746543911.4224913,0.723216,-0.006344,-0.031232,-14.840000000000002,0.07,-0.6300000000000001,-0.4804208065458796,-0.03389830508474576,-0.12156633547632963
1746543911.502558,0.9286639999999999,-0.078568,-0.081496,-17.360000000000003,-12.040000000000001,7.910000000000001,-0.4804208065458796,-0.03389830508474576,-0.12156633547632963
1746543911.5826714,1.179984,-0.137616,0.047335999999999996,-17.01,-17.85,5.95,-0.4804208065458796,-0.03389830508474576,-0.12156633547632963
1746543911.6627324,1.260992,0.041968,0.11516799999999999,4.2700000000000005,1.4000000000000001,-13.020000000000001,-0.4804208065458796,-0.03389830508474576,-0.12156633547632963
1746543911.7501688,1.008696,0.105408,0.145424,14.21,16.310000000000002,-4.970000000000001,-0.4792518994739918,0.0058445353594389245,-0.1256575102279369
1746543911.8229,0.73444,0.06344,0.073688,16.520000000000003,19.040000000000003,4.130000000000001,-0.4792518994739918,0.0058445353594389245,-0.1256575102279369
1746543911.9029958,0.70272,0.017079999999999998,-0.035136,17.71,7.000000000000001,20.650000000000002,-0.4792518994739918,0.0058445353594389245,-0.1256575102279369
1746543911.98308,0.8891359999999999,-0.04392,-0.029768,19.740000000000002,0.28,26.040000000000003,-0.4792518994739918,0.0058445353594389245,-0.1256575102279369
1746543912.0631614,1.126792,-0.09174399999999999,0.037576,13.860000000000001,-6.720000000000001,6.86,-0.4792518994739918,0.0058445353594389245,-0.1256575102279369
1746543912.1432552,1.385432,-0.157624,0.069296,-2.1,-19.880000000000003,-10.430000000000001,-0.4792518994739918,0.0058445353594389245,-0.1256575102279369
1746543912.2233534,1.228296,-0.15420799999999998,0.190808,-4.760000000000001,5.95,-12.040000000000001,-0.4792518994739918,0.0058445353594389245,-0.1256575102279369
1746543912.3034317,1.079944,-0.075152,0.179584,3.2900000000000005,2.87,-9.24,-0.4792518994739918,0.0058445353594389245,-0.1256575102279369
1746543912.4022627,0.6344,0.049776,0.098088,-0.8400000000000001,12.32,-15.05,-0.4792518994739918,0.0058445353594389245,-0.1256575102279369
1746543912.4642682,0.7056479999999999,0.019032,-0.017079999999999998,-13.3,-3.5700000000000003,-14.770000000000001,-0.4792518994739918,0.0058445353594389245,-0.1256575102279369
1746543912.5436985,0.915,-0.035623999999999996,-0.032208,-12.88,-3.9200000000000004,-6.090000000000001,-0.4792518994739918,0.0058445353594389245,-0.1256575102279369
1746543912.6237936,1.19804,-0.016592,0.040015999999999996,-3.8500000000000005,-5.8100000000000005,-1.2600000000000002,-0.4792518994739918,0.0058445353594389245,-0.1256575102279369
1746543912.7038724,1.337608,0.023912,0.097112,6.300000000000001,-2.24,0.21000000000000002,-0.4792518994739918,0.0058445353594389245,-0.1256575102279369
1746543912.7839556,1.213168,0.07417599999999999,0.17763199999999998,12.670000000000002,7.490000000000001,12.46,-0.4792518994739918,0.0058445353594389245,-0.1256575102279369
1746543912.8679943,0.662216,0.057096,0.041968,19.040000000000003,4.970000000000001,8.82,-0.4792518994739918,0.0058445353594389245,-0.1256575102279369
1746543912.94413,0.6426959999999999,0.023424,-0.017568,16.450000000000003,2.24,12.670000000000002,-0.4792518994739918,0.0058445353594389245,-0.1256575102279369
1746543913.02422,0.8374079999999999,-0.012688,-0.027327999999999998,9.030000000000001,5.250000000000001,15.400000000000002,-0.4792518994739918,0.0058445353594389245,-0.1256575102279369
1746543913.104306,1.150704,-0.104432,0.047824,3.6400000000000006,-0.8400000000000001,7.000000000000001,-0.4792518994739918,0.0058445353594389245,-0.1256575102279369
1746543913.1844106,1.453752,-0.079544,0.143472,-3.1500000000000004,-4.83,4.41,-0.4792518994739918,0.0058445353594389245,-0.1256575102279369
1746543913.2710392,1.242448,-0.049288,0.22204,-15.330000000000002,23.17,-10.780000000000001,-0.4792518994739918,0.0058445353594389245,-0.1256575102279369
1746543913.344611,1.12972,-0.08295999999999999,0.22691999999999998,-25.480000000000004,-7.140000000000001,-16.1,-0.4663939216832262,-0.019871420222092345,-0.16306253652834599
1746543913.4247255,0.727608,-0.031232,0.074664,-33.95,4.83,-19.6,-0.4663939216832262,-0.019871420222092345,-0.16306253652834599
1746543913.5047956,0.665632,0.030744,0.000976,-26.880000000000003,-7.490000000000001,-16.380000000000003,-0.4663939216832262,-0.019871420222092345,-0.16306253652834599
1746543913.5848787,0.857416,0.023424,-0.017568,-20.020000000000003,-12.110000000000001,-4.41,-0.4663939216832262,-0.019871420222092345,-0.16306253652834599
1746543913.6649678,1.157048,0.064904,0.032695999999999996,-9.170000000000002,1.9600000000000002,1.2600000000000002,-0.4663939216832262,-0.019871420222092345,-0.16306253652834599
1746543913.749032,1.329312,0.05856,0.11516799999999999,0.21000000000000002,-0.28,-5.250000000000001,-0.4663939216832262,-0.019871420222092345,-0.16306253652834599
1746543913.825125,1.231712,0.08588799999999999,0.20105599999999998,7.420000000000001,5.670000000000001,-19.740000000000002,-0.4663939216832262,-0.019871420222092345,-0.16306253652834599
1746543913.9052148,1.03212,0.117608,0.216184,11.06,1.4000000000000001,-3.2900000000000005,-0.4663939216832262,-0.019871420222092345,-0.16306253652834599
1746543913.9853063,0.651968,-0.020496,0.016104,16.380000000000003,-1.6800000000000002,20.44,-0.4663939216832262,-0.019871420222092345,-0.16306253652834599
1746543914.0653903,0.80764,-0.010735999999999999,-0.027816,20.580000000000002,-9.870000000000001,24.080000000000002,-0.4663939216832262,-0.019871420222092345,-0.16306253652834599
1746543914.1520987,1.079944,0.005856,-0.02928,11.830000000000002,-10.850000000000001,16.8,-0.4663939216832262,-0.019871420222092345,-0.16306253652834599
1746543914.225576,1.282464,-0.061,0.047824,-3.7100000000000004,-10.010000000000002,7.7700000000000005,-0.4663939216832262,-0.019871420222092345,-0.16306253652834599
1746543914.3056808,1.303936,-0.114192,0.140544,-12.600000000000001,4.0600000000000005,3.6400000000000006,-0.4663939216832262,-0.019871420222092345,-0.16306253652834599
1746543914.3857648,1.0735999999999999,-0.10736,0.15372,-11.830000000000002,10.010000000000002,-5.74,-0.4663939216832262,-0.019871420222092345,-0.16306253652834599
1746543914.4658825,0.745176,-0.035136,0.135664,-14.21,13.650000000000002,-16.310000000000002,-0.4663939216832262,-0.019871420222092345,-0.16306253652834599
1746543914.5459561,0.71736,0.008784,0.022935999999999998,-20.650000000000002,2.0300000000000002,-11.760000000000002,-0.4663939216832262,-0.019871420222092345,-0.16306253652834599
1746543914.628586,0.89304,0.0,0.003904,-18.900000000000002,-7.840000000000001,-3.7800000000000002,-0.4663939216832262,-0.019871420222092345,-0.16306253652834599
1746543914.706153,1.1468,-0.023912,0.038064,-12.81,-12.81,3.9200000000000004,-0.4663939216832262,-0.019871420222092345,-0.16306253652834599
1746543914.7862265,1.247816,0.012688,0.064904,3.22,-6.23,2.8000000000000003,-0.4663939216832262,-0.019871420222092345,-0.16306253652834599
1746543914.8663135,1.331752,0.047335999999999996,0.21276799999999998,14.910000000000002,13.930000000000001,-0.49000000000000005,-0.4886031560490941,0.03623611922852133,-0.2016364699006429
1746543914.946407,1.081408,0.040992,0.194224,14.840000000000002,12.250000000000002,8.190000000000001,-0.4886031560490941,0.03623611922852133,-0.2016364699006429
1746543915.0315847,0.650992,-0.033184,-0.020496,11.48,-18.62,11.200000000000001,-0.4886031560490941,0.03623611922852133,-0.2016364699006429
1746543915.106578,0.894504,-0.028304,-0.052216,8.96,-14.840000000000002,11.48,-0.4886031560490941,0.03623611922852133,-0.2016364699006429
1746543915.186685,1.110688,0.017568,-0.012688,2.1700000000000004,13.23,8.33,-0.4886031560490941,0.03623611922852133,-0.2016364699006429
1746543915.2667613,1.213168,-0.096624,0.044407999999999996,-18.060000000000002,-3.08,-1.33,-0.4886031560490941,0.03623611922852133,-0.2016364699006429
1746543915.346856,1.30296,-0.165432,0.135176,-21.35,-10.430000000000001,-6.090000000000001,-0.4886031560490941,0.03623611922852133,-0.2016364699006429
1746543915.441677,1.03456,-0.099552,0.161528,-9.100000000000001,2.1,-7.490000000000001,-0.4886031560490941,0.03623611922852133,-0.2016364699006429
1746543915.5132384,0.807152,-0.024888,0.095648,-6.0200000000000005,6.720000000000001,-5.880000000000001,-0.4886031560490941,0.03623611922852133,-0.2016364699006429
1746543915.5871315,0.684176,0.042456,0.000976,-10.360000000000001,0.49000000000000005,-0.7000000000000001,-0.4886031560490941,0.03623611922852133,-0.2016364699006429
1746543915.667227,0.8174,0.061975999999999996,-0.028304,-8.05,-10.15,2.24,-0.4886031560490941,0.03623611922852133,-0.2016364699006429
1746543915.7473133,1.18584,0.049288,-0.03904,-2.24,-4.2700000000000005,4.9,-0.4886031560490941,0.03623611922852133,-0.2016364699006429
1746543915.8274016,1.274168,-0.01952,0.024888,12.950000000000001,1.8200000000000003,2.1,-0.4886031560490941,0.03623611922852133,-0.2016364699006429
1746543915.91484,1.269776,0.021471999999999998,0.11809599999999999,20.160000000000004,-1.7500000000000002,-6.65,-0.4886031560490941,0.03623611922852133,-0.2016364699006429
1746543915.9875827,1.123376,0.068808,0.132248,17.78,5.74,-6.510000000000001,-0.4886031560490941,0.03623611922852133,-0.2016364699006429
1746543916.0676637,0.772992,0.071736,0.083448,21.490000000000002,16.1,2.5900000000000003,-0.4886031560490941,0.03623611922852133,-0.2016364699006429
1746543916.1477466,0.665632,0.066368,0.00244,24.360000000000003,5.95,10.15,-0.4886031560490941,0.03623611922852133,-0.2016364699006429
1746543916.2278636,1.057008,-0.041479999999999996,0.013176,15.750000000000002,5.880000000000001,14.63,-0.4886031560490941,0.03623611922852133,-0.2016364699006429
1746543916.3079455,1.269776,-0.096136,0.104432,-0.6300000000000001,-13.23,-1.6800000000000002,-0.4886031560490941,0.03623611922852133,-0.2016364699006429
1746543916.3953803,1.405928,-0.111264,0.198128,-10.290000000000001,-7.3500000000000005,-15.610000000000001,-0.4886031560490941,0.03623611922852133,-0.2016364699006429
1746543916.4681308,1.075064,-0.06539199999999999,0.18348799999999998,-5.250000000000001,16.8,-11.55,-0.5751022793687902,0.17182933956750437,-0.12390414962010521
1746543916.548203,0.8608319999999999,0.015616,0.10638399999999999,2.24,11.830000000000002,-1.54,-0.5751022793687902,0.17182933956750437,-0.12390414962010521
1746543916.6282864,0.668072,0.059047999999999996,0.021471999999999998,-1.12,7.5600000000000005,-7.840000000000001,-0.5751022793687902,0.17182933956750437,-0.12390414962010521
1746543916.708385,0.780312,0.010735999999999999,-0.017568,-3.5000000000000004,-7.3500000000000005,-11.760000000000002,-0.5751022793687902,0.17182933956750437,-0.12390414962010521
1746543916.7958236,1.091168,-0.05124,0.048312,1.4000000000000001,-2.8000000000000003,-1.61,-0.5751022793687902,0.17182933956750437,-0.12390414962010521
1746543916.8685555,1.248304,-0.019032,0.110776,13.580000000000002,-2.31,0.8400000000000001,-0.5751022793687902,0.17182933956750437,-0.12390414962010521
1746543916.948642,1.30052,0.038064,0.168848,17.220000000000002,-7.3500000000000005,-0.6300000000000001,-0.5751022793687902,0.17182933956750437,-0.12390414962010521
1746543917.0304866,1.086776,0.066856,0.17568,18.060000000000002,-2.24,-2.9400000000000004,-0.5751022793687902,0.17182933956750437,-0.12390414962010521
1746543917.1088123,0.796416,0.0854,0.105896,18.900000000000002,-1.4700000000000002,-8.540000000000001,-0.5751022793687902,0.17182933956750437,-0.12390414962010521
1746543917.1889231,0.724192,0.068808,0.05368,14.910000000000002,20.51,1.05,-0.5751022793687902,0.17182933956750437,-0.12390414962010521
1746543917.2689986,0.809592,-0.018543999999999998,0.036112,10.850000000000001,10.71,19.740000000000002,-0.5751022793687902,0.17182933956750437,-0.12390414962010521
1746543917.3491025,1.257576,-0.118584,0.121512,-12.040000000000001,-10.290000000000001,5.670000000000001,-0.5751022793687902,0.17182933956750437,-0.12390414962010521
1746543917.4481683,1.375184,-0.10736,0.178608,-23.450000000000003,-12.39,-4.9,-0.5751022793687902,0.17182933956750437,-0.12390414962010521
1746543917.510173,1.0462719999999999,-0.106872,0.162504,-24.220000000000002,7.210000000000001,-6.65,-0.5751022793687902,0.17182933956750437,-0.12390414962010521
1746543917.5893898,0.779824,-0.042456,0.130296,-23.8,9.520000000000001,-12.950000000000001,-0.5751022793687902,0.17182933956750437,-0.12390414962010521
1746543917.6694903,0.701256,0.00732,0.055632,-26.810000000000002,11.620000000000001,-10.430000000000001,-0.5751022793687902,0.17182933956750437,-0.12390414962010521
1746543917.7495685,0.8325279999999999,-0.047824,0.03172,-22.05,5.8100000000000005,-0.28,-0.5751022793687902,0.17182933956750437,-0.12390414962010521
1746543917.829653,1.062864,-0.008784,0.088328,-17.220000000000002,-15.400000000000002,-1.12,-0.5751022793687902,0.17182933956750437,-0.12390414962010521
1746543917.9136703,1.248792,-0.011224,0.060024,-9.520000000000001,-24.430000000000003,-7.840000000000001,-0.5751022793687902,0.17182933956750437,-0.12390414962010521
1746543917.9898276,1.31028,0.028304,0.199104,-0.56,9.030000000000001,-1.4000000000000001,-0.48392752776154296,-0.009351256575102279,-0.09818819403857393
1746543918.0699186,1.004304,0.03904,0.240584,-2.3800000000000003,12.600000000000001,12.530000000000001,-0.48392752776154296,-0.009351256575102279,-0.09818819403857393
1746543918.1500092,0.82472,0.014152,0.167872,-12.950000000000001,12.740000000000002,2.1700000000000004,-0.48392752776154296,-0.009351256575102279,-0.09818819403857393
1746543918.2300947,0.732,0.013663999999999999,0.08295999999999999,-13.860000000000001,17.360000000000003,-3.5000000000000004,-0.48392752776154296,-0.009351256575102279,-0.09818819403857393
1746543918.3166435,0.859856,-0.023912,0.066368,-21.700000000000003,-1.12,5.180000000000001,-0.48392752776154296,-0.009351256575102279,-0.09818819403857393
1746543918.3902557,1.054568,0.00976,0.083448,-30.94,-8.190000000000001,1.9600000000000002,-0.48392752776154296,-0.009351256575102279,-0.09818819403857393
1746543918.4703856,1.193648,-0.014152,0.182512,-39.760000000000005,-5.460000000000001,-10.57,-0.48392752776154296,-0.009351256575102279,-0.09818819403857393
1746543918.550457,1.160952,-0.061,0.169336,-29.890000000000004,7.7700000000000005,-11.55,-0.48392752776154296,-0.009351256575102279,-0.09818819403857393
1746543918.630534,0.881328,-0.02684,0.117608,-24.430000000000003,15.400000000000002,-8.89,-0.48392752776154296,-0.009351256575102279,-0.09818819403857393
1746543918.710618,0.68808,0.057583999999999996,0.056608,-7.420000000000001,8.05,-7.000000000000001,-0.48392752776154296,-0.009351256575102279,-0.09818819403857393
1746543918.7946823,0.755424,0.086376,0.03904,0.77,-10.290000000000001,4.130000000000001,-0.48392752776154296,-0.009351256575102279,-0.09818819403857393
1746543918.87079,0.970144,0.040504,0.062952,5.95,-12.180000000000001,7.910000000000001,-0.48392752776154296,-0.009351256575102279,-0.09818819403857393
1746543918.9508882,1.264408,0.050263999999999996,0.119072,25.340000000000003,-12.950000000000001,4.130000000000001,-0.48392752776154296,-0.009351256575102279,-0.09818819403857393
1746543919.0309725,1.308328,0.052216,0.176168,37.45,4.48,-2.0300000000000002,-0.48392752776154296,-0.009351256575102279,-0.09818819403857393
1746543919.1110873,1.135576,0.017568,0.174704,37.730000000000004,6.510000000000001,-13.790000000000001,-0.48392752776154296,-0.009351256575102279,-0.09818819403857393
1746543919.1975558,0.947696,0.046848,0.14005599999999999,37.1,0.56,-15.890000000000002,-0.48392752776154296,-0.009351256575102279,-0.09818819403857393
1746543919.2710779,0.726144,0.059047999999999996,0.044407999999999996,34.300000000000004,5.95,-3.3600000000000003,-0.48392752776154296,-0.009351256575102279,-0.09818819403857393
1746543919.350685,0.750056,0.05856,0.0034159999999999998,31.500000000000004,-3.43,15.120000000000001,-0.48392752776154296,-0.009351256575102279,-0.09818819403857393
1746543919.441174,1.073112,-0.003904,0.010248,2.7300000000000004,-2.7300000000000004,8.120000000000001,-0.48392752776154296,-0.009351256575102279,-0.09818819403857393
1746543919.5116067,1.197552,-0.061488,0.08003199999999999,2.7300000000000004,-2.7300000000000004,8.120000000000001,-0.48392752776154296,-0.009351256575102279,-0.09818819403857393
1746543919.5917063,1.284904,-0.096624,0.150304,-19.740000000000002,-7.210000000000001,-5.250000000000001,-0.47574517825832846,-0.019871420222092345,-0.10753945061367622
1746543919.6736953,0.945256,-0.047824,0.123464,-18.900000000000002,6.930000000000001,-2.87,-0.47574517825832846,-0.019871420222092345,-0.10753945061367622
1746543919.7518563,0.71736,0.018543999999999998,0.044407999999999996,-11.620000000000001,10.780000000000001,3.43,-0.47574517825832846,-0.019871420222092345,-0.10753945061367622
1746543919.8319461,0.7549359999999999,0.041968,-0.0068319999999999995,-4.970000000000001,-2.1700000000000004,4.2700000000000005,-0.47574517825832846,-0.019871420222092345,-0.10753945061367622
1746543919.912065,0.982344,0.017568,0.024888,-6.300000000000001,-7.3500000000000005,3.5700000000000003,-0.47574517825832846,-0.019871420222092345,-0.10753945061367622
1746543919.9921381,1.2829519999999999,0.046848,0.062464,1.4700000000000002,-14.280000000000001,-14.070000000000002,-0.47574517825832846,-0.019871420222092345,-0.10753945061367622
1746543920.0765867,1.358592,0.09516,0.059536,14.420000000000002,-8.680000000000001,-9.100000000000001,-0.47574517825832846,-0.019871420222092345,-0.10753945061367622
1746543920.1523435,1.183888,0.078568,0.12395199999999999,23.590000000000003,5.880000000000001,0.6300000000000001,-0.47574517825832846,-0.019871420222092345,-0.10753945061367622
1746543920.2324467,0.8793759999999999,0.064904,0.117608,28.490000000000002,19.040000000000003,9.73,-0.47574517825832846,-0.019871420222092345,-0.10753945061367622
1746543920.3125377,0.6168319999999999,0.015127999999999999,-0.006344,29.610000000000003,10.71,16.310000000000002,-0.47574517825832846,-0.019871420222092345,-0.10753945061367622
1746543920.3926349,0.699304,-0.012688,-0.030255999999999998,25.130000000000003,1.54,19.6,-0.47574517825832846,-0.019871420222092345,-0.10753945061367622
1746543920.4727592,0.9730719999999999,-0.041968,-0.015616,20.790000000000003,3.5000000000000004,12.600000000000001,-0.47574517825832846,-0.019871420222092345,-0.10753945061367622
1746543920.5528784,1.2214639999999999,-0.026352,0.094184,8.680000000000001,2.5900000000000003,0.14,-0.47574517825832846,-0.019871420222092345,-0.10753945061367622
1746543920.6329193,1.42984,-0.06539199999999999,0.170312,-9.940000000000001,-0.21000000000000002,-3.2900000000000005,-0.47574517825832846,-0.019871420222092345,-0.10753945061367622
1746543920.7130287,1.098488,-0.060511999999999996,0.240584,-23.520000000000003,-8.05,-7.000000000000001,-0.47574517825832846,-0.019871420222092345,-0.10753945061367622
1746543920.7931106,0.743712,0.046848,0.022448,-21.07,14.070000000000002,-10.780000000000001,-0.47574517825832846,-0.019871420222092345,-0.10753945061367622
1746543920.873219,0.780312,-0.010735999999999999,0.020984,-21.000000000000004,4.550000000000001,-14.420000000000002,-0.47574517825832846,-0.019871420222092345,-0.10753945061367622
1746543920.957173,0.98088,-0.10345599999999999,0.024888,-14.420000000000002,-5.390000000000001,-0.42000000000000004,-0.47574517825832846,-0.019871420222092345,-0.10753945061367622
1746543921.033407,1.246352,0.057583999999999996,0.176656,-2.8000000000000003,1.1900000000000002,5.880000000000001,-0.47574517825832846,-0.019871420222092345,-0.10753945061367622
1746543921.1134932,1.248304,0.13419999999999999,0.184952,-0.49000000000000005,-5.53,0.77,-0.47574517825832846,-0.010520163646990065,-0.12682641729982466
1746543921.1936133,1.220488,0.152256,0.186416,-0.07,-23.380000000000003,-4.2,-0.47574517825832846,-0.010520163646990065,-0.12682641729982466
1746543921.273686,0.930616,0.104432,0.19276,4.970000000000001,2.8000000000000003,0.49000000000000005,-0.47574517825832846,-0.010520163646990065,-0.12682641729982466
1746543921.3601725,0.696376,0.054655999999999996,0.054168,17.01,12.180000000000001,3.2900000000000005,-0.47574517825832846,-0.010520163646990065,-0.12682641729982466
1746543921.4338877,0.709064,-0.010735999999999999,-0.012199999999999999,17.430000000000003,-3.5700000000000003,16.03,-0.47574517825832846,-0.010520163646990065,-0.12682641729982466
1746543921.5139732,1.0365119999999999,-0.030744,0.042943999999999996,17.64,-0.56,18.76,-0.47574517825832846,-0.010520163646990065,-0.12682641729982466
1746543921.601404,1.1424079999999999,-0.061,0.08295999999999999,12.110000000000001,4.340000000000001,11.06,-0.47574517825832846,-0.010520163646990065,-0.12682641729982466
1746543921.674151,1.323944,-0.047824,0.066368,-1.2600000000000002,-21.910000000000004,7.07,-0.47574517825832846,-0.010520163646990065,-0.12682641729982466
1746543921.75423,1.17364,-0.047824,0.19276,-12.670000000000002,10.290000000000001,2.66,-0.47574517825832846,-0.010520163646990065,-0.12682641729982466
1746543921.8360422,0.916952,-0.062464,0.07417599999999999,-24.360000000000003,0.6300000000000001,-2.8000000000000003,-0.47574517825832846,-0.010520163646990065,-0.12682641729982466
1746543921.914402,0.737368,-0.016592,-0.00244,-12.32,-8.540000000000001,-3.1500000000000004,-0.47574517825832846,-0.010520163646990065,-0.12682641729982466
1746543921.994486,0.989664,-0.045384,0.035136,-9.870000000000001,-3.7100000000000004,-8.33,-0.47574517825832846,-0.010520163646990065,-0.12682641729982466
1746543922.0745726,1.21024,-0.020984,0.141032,-5.53,13.510000000000002,-12.180000000000001,-0.47574517825832846,-0.010520163646990065,-0.12682641729982466
1746543922.1546712,1.289296,-0.01952,0.138104,-1.33,-5.250000000000001,0.49000000000000005,-0.47574517825832846,-0.010520163646990065,-0.12682641729982466
1746543922.2388625,1.138992,0.01464,0.147864,0.42000000000000004,-12.600000000000001,4.83,-0.47574517825832846,-0.010520163646990065,-0.12682641729982466
1746543922.314833,0.909144,0.037576,0.147376,-0.14,-1.33,1.6800000000000002,-0.47574517825832846,-0.010520163646990065,-0.12682641729982466
1746543922.3949175,0.722728,-0.000976,0.083448,1.7500000000000002,1.33,-1.8200000000000003,-0.47574517825832846,-0.010520163646990065,-0.12682641729982466
1746543922.4824474,0.737856,-0.029768,0.020496,2.87,3.3600000000000003,7.3500000000000005,-0.47574517825832846,-0.010520163646990065,-0.12682641729982466
1746543922.5551379,0.862784,-0.05856,-0.00244,2.9400000000000004,-2.66,24.220000000000002,-0.47574517825832846,-0.010520163646990065,-0.12682641729982466
1746543922.6352353,1.22244,-0.104432,0.066368,-0.77,-12.88,24.150000000000002,-0.47574517825832846,-0.010520163646990065,-0.12682641729982466
1746543922.7153115,1.336632,-0.127856,0.095648,-8.96,0.77,-7.5600000000000005,-0.4582115721800117,0.031560490940970194,-0.11747516072472239
1746543922.7954066,1.223416,-0.09174399999999999,0.184952,-16.8,14.490000000000002,-21.28,-0.4582115721800117,0.031560490940970194,-0.11747516072472239
1746543922.875494,1.042368,-0.096136,0.167872,-18.270000000000003,10.780000000000001,-22.540000000000003,-0.4582115721800117,0.031560490940970194,-0.11747516072472239
1746543922.9555807,0.704184,-0.038551999999999996,0.039528,-13.860000000000001,-10.430000000000001,-0.8400000000000001,-0.4582115721800117,0.031560490940970194,-0.11747516072472239
1746543923.0356646,0.921832,-0.012688,0.008296,-3.5700000000000003,-5.880000000000001,16.1,-0.4582115721800117,0.031560490940970194,-0.11747516072472239
1746543923.1196225,1.14436,-0.017568,0.098088,7.630000000000001,-15.260000000000002,2.31,-0.4582115721800117,0.031560490940970194,-0.11747516072472239
1746543923.1958466,1.28588,0.007808,0.096136,15.260000000000002,-17.64,-11.97,-0.4582115721800117,0.031560490940970194,-0.11747516072472239
1746543923.2759247,1.166808,0.069296,0.164944,26.950000000000003,2.9400000000000004,-21.700000000000003,-0.4582115721800117,0.031560490940970194,-0.11747516072472239
1746543923.3560112,0.977464,0.09174399999999999,0.127368,34.650000000000006,1.33,-7.280000000000001,-0.4582115721800117,0.031560490940970194,-0.11747516072472239
1746543923.4361148,0.76128,0.06831999999999999,0.021471999999999998,36.89,15.680000000000001,14.420000000000002,-0.4582115721800117,0.031560490940970194,-0.11747516072472239
1746543923.5162103,0.70028,0.017568,-0.02928,34.440000000000005,17.85,21.840000000000003,-0.4582115721800117,0.031560490940970194,-0.11747516072472239
1746543923.5962853,0.986736,-0.0053679999999999995,-0.028304,26.950000000000003,4.69,17.78,-0.4582115721800117,0.031560490940970194,-0.11747516072472239
1746543923.6763647,1.162904,-0.041479999999999996,0.091256,9.520000000000001,-2.7300000000000004,8.89,-0.4582115721800117,0.031560490940970194,-0.11747516072472239
1746543923.763802,1.330776,-0.12102399999999999,0.105896,-9.940000000000001,-20.51,-0.77,-0.4582115721800117,0.031560490940970194,-0.11747516072472239
1746543923.8365343,1.113616,-0.08588799999999999,0.18056,-13.160000000000002,15.750000000000002,-9.8,-0.4582115721800117,0.031560490940970194,-0.11747516072472239
1746543923.916621,0.970144,-0.076616,0.166408,-13.370000000000001,10.080000000000002,-7.3500000000000005,-0.4582115721800117,0.031560490940970194,-0.11747516072472239
1746543923.9983568,0.727608,-0.008784,0.067832,-15.47,11.55,-9.590000000000002,-0.4582115721800117,0.031560490940970194,-0.11747516072472239
1746543924.0767853,0.772992,0.032208,-0.00244,-10.780000000000001,0.49000000000000005,-11.410000000000002,-0.4582115721800117,0.031560490940970194,-0.11747516072472239
1746543924.156911,1.208776,0.01952,0.09467199999999999,4.69,-10.500000000000002,0.8400000000000001,-0.4582115721800117,0.031560490940970194,-0.11747516072472239
1746543924.2369776,1.328824,0.034648,0.121512,18.130000000000003,-21.000000000000004,8.82,-0.46756282875511396,-0.022209234365867914,-0.12507305669199298
1746543924.3170624,1.147776,0.084424,0.195688,28.000000000000004,-1.4700000000000002,8.96,-0.46756282875511396,-0.022209234365867914,-0.12507305669199298
1746543924.4159214,0.894992,0.057096,0.141032,18.830000000000002,8.680000000000001,12.180000000000001,-0.46756282875511396,-0.022209234365867914,-0.12507305669199298
1746543924.47791,0.6563599999999999,0.036112,0.023912,14.910000000000002,9.870000000000001,7.98,-0.46756282875511396,-0.022209234365867914,-0.12507305669199298
1746543924.55733,0.709552,-0.011712,-0.028791999999999998,15.96,-3.8500000000000005,14.000000000000002,-0.46756282875511396,-0.022209234365867914,-0.12507305669199298
1746543924.6374226,0.935496,-0.014152,-0.013176,16.520000000000003,-8.47,13.370000000000001,-0.46756282875511396,-0.022209234365867914,-0.12507305669199298
1746543924.717501,1.2322,-0.11809599999999999,0.07808,2.31,-0.42000000000000004,-1.2600000000000002,-0.46756282875511396,-0.022209234365867914,-0.12507305669199298
1746543924.7975893,1.444968,-0.150792,0.174704,-10.57,7.280000000000001,-9.38,-0.46756282875511396,-0.022209234365867914,-0.12507305669199298
1746543924.8815324,1.156072,-0.1708,0.199592,-21.07,18.62,-5.040000000000001,-0.46756282875511396,-0.022209234365867914,-0.12507305669199298
1746543924.957774,0.9189039999999999,-0.090768,0.10492,-21.910000000000004,2.66,-2.87,-0.46756282875511396,-0.022209234365867914,-0.12507305669199298
1746543925.037857,0.671,0.000976,0.033672,-11.200000000000001,2.1,-16.1,-0.46756282875511396,-0.022209234365867914,-0.12507305669199298
1746543925.1179419,0.7129679999999999,-0.01464,0.000976,-6.16,-13.3,-16.03,-0.46756282875511396,-0.022209234365867914,-0.12507305669199298
1746543925.1980543,0.996008,-0.03904,0.06831999999999999,-4.62,-12.600000000000001,-10.500000000000002,-0.46756282875511396,-0.022209234365867914,-0.12507305669199298
1746543925.2849112,1.311744,0.012199999999999999,0.122976,12.39,3.22,5.95,-0.46756282875511396,-0.022209234365867914,-0.12507305669199298
1746543925.358251,1.242936,0.031232,0.20496,21.560000000000002,12.46,3.5700000000000003,-0.46756282875511396,-0.022209234365867914,-0.12507305669199298
1746543925.4383512,0.86864,0.036112,0.113704,18.76,13.370000000000001,4.2700000000000005,-0.46756282875511396,-0.022209234365867914,-0.12507305669199298
1746543925.5184524,0.659288,0.0068319999999999995,0.014152,9.450000000000001,1.54,8.540000000000001,-0.46756282875511396,-0.022209234365867914,-0.12507305669199298
1746543925.5985372,0.726632,-0.020496,-0.027327999999999998,1.9600000000000002,-7.840000000000001,14.980000000000002,-0.46756282875511396,-0.022209234365867914,-0.12507305669199298
1746543925.6786087,1.016016,-0.04636,-0.011712,-1.6800000000000002,-10.22,9.31,-0.46756282875511396,-0.022209234365867914,-0.12507305669199298
1746543925.7626197,1.211216,-0.096624,0.079544,-10.780000000000001,-13.23,2.31,-0.4687317358270017,-0.030391583869082407,-0.1309175920514319
1746543925.8387802,1.377136,-0.122488,0.10004,-21.42,-12.250000000000002,-2.1700000000000004,-0.4687317358270017,-0.030391583869082407,-0.1309175920514319
1746543925.9188719,1.165832,-0.108824,0.168848,-19.39,18.060000000000002,-9.170000000000002,-0.4687317358270017,-0.030391583869082407,-0.1309175920514319
1746543925.998964,0.94916,-0.052216,0.135176,-13.930000000000001,15.890000000000002,-12.250000000000002,-0.4687317358270017,-0.030391583869082407,-0.1309175920514319
1746543926.0790865,0.672464,0.039528,0.030744,-16.59,6.580000000000001,-13.650000000000002,-0.4687317358270017,-0.030391583869082407,-0.1309175920514319
1746543926.1654086,0.7080879999999999,0.022935999999999998,-0.011224,-16.59,-5.460000000000001,-5.74,-0.4687317358270017,-0.030391583869082407,-0.1309175920514319
1746543926.2392383,0.9882,0.001952,0.027816,-10.500000000000002,-3.3600000000000003,2.3800000000000003,-0.4687317358270017,-0.030391583869082407,-0.1309175920514319
1746543926.3193183,1.20536,-0.00732,0.128832,0.6300000000000001,6.0200000000000005,0.35000000000000003,-0.4687317358270017,-0.030391583869082407,-0.1309175920514319
1746543926.399404,1.097024,0.033184,0.203008,18.270000000000003,7.840000000000001,1.61,-0.4687317358270017,-0.030391583869082407,-0.1309175920514319
1746543926.4795218,0.9076799999999999,0.060511999999999996,0.162992,18.69,2.31,4.970000000000001,-0.4687317358270017,-0.030391583869082407,-0.1309175920514319
1746543926.5596118,0.655384,-0.00976,0.06831999999999999,8.540000000000001,20.37,10.71,-0.4687317358270017,-0.030391583869082407,-0.1309175920514319
1746543926.6412504,0.74664,-0.025376,0.015127999999999999,4.2700000000000005,-0.77,15.400000000000002,-0.4687317358270017,-0.030391583869082407,-0.1309175920514319
1746543926.7197652,1.027728,-0.008784,0.035623999999999996,2.9400000000000004,-7.98,12.530000000000001,-0.4687317358270017,-0.030391583869082407,-0.1309175920514319
1746543926.7998443,1.2902719999999999,-0.052704,0.131272,-5.390000000000001,-3.43,2.66,-0.4687317358270017,-0.030391583869082407,-0.1309175920514319
1746543926.8799338,1.4064159999999999,-0.11956,0.176168,-11.55,-9.31,-8.82,-0.4687317358270017,-0.030391583869082407,-0.1309175920514319
1746543926.9600122,1.108248,-0.083936,0.20008,-7.420000000000001,-5.250000000000001,-5.8100000000000005,-0.4687317358270017,-0.030391583869082407,-0.1309175920514319
1746543927.044063,0.901336,-0.098576,0.160552,-10.64,-1.12,1.4700000000000002,-0.4687317358270017,-0.030391583869082407,-0.1309175920514319
1746543927.1201892,0.646112,0.019032,0.035623999999999996,-13.580000000000002,2.9400000000000004,-8.75,-0.4687317358270017,-0.030391583869082407,-0.1309175920514319
1746543927.2002902,0.71248,-0.006344,-0.015127999999999999,-13.23,-6.930000000000001,-10.500000000000002,-0.4687317358270017,-0.030391583869082407,-0.1309175920514319
1746543927.2803679,1.045296,-0.023912,0.042456,-10.99,-6.510000000000001,-3.5700000000000003,-0.4687317358270017,-0.030391583869082407,-0.1309175920514319
1746543927.3604522,1.321992,-0.025863999999999998,0.117608,-2.45,-3.8500000000000005,-7.3500000000000005,-0.47574517825832846,-0.03506721215663355,-0.13442431326709525
1746543927.461592,1.11996,0.115656,0.155672,6.510000000000001,-11.13,-13.440000000000001,-0.47574517825832846,-0.03506721215663355,-0.13442431326709525
1746543927.5235782,0.881328,0.084424,0.11809599999999999,2.1700000000000004,13.020000000000001,10.99,-0.47574517825832846,-0.03506721215663355,-0.13442431326709525
1746543927.600733,0.650504,0.011224,0.032208,7.630000000000001,18.69,13.790000000000001,-0.47574517825832846,-0.03506721215663355,-0.13442431326709525
1746543927.6808095,0.735416,0.000488,-0.031232,16.1,-6.580000000000001,15.610000000000001,-0.47574517825832846,-0.03506721215663355,-0.13442431326709525
1746543927.7609012,1.068232,0.034648,0.00732,11.55,-2.5900000000000003,10.920000000000002,-0.47574517825832846,-0.03506721215663355,-0.13442431326709525
1746543927.8409863,1.21024,-0.023912,0.087352,-2.1,1.8200000000000003,-2.3800000000000003,-0.47574517825832846,-0.03506721215663355,-0.13442431326709525
1746543927.9264102,1.3664,-0.057096,0.093208,-9.520000000000001,-22.470000000000002,-1.54,-0.47574517825832846,-0.03506721215663355,-0.13442431326709525
1746543928.0011544,1.15168,-0.028791999999999998,0.177144,-9.870000000000001,-1.7500000000000002,-2.5200000000000005,-0.47574517825832846,-0.03506721215663355,-0.13442431326709525
1746543928.0812864,0.894504,-0.052704,0.15128,-16.94,9.66,-8.89,-0.47574517825832846,-0.03506721215663355,-0.13442431326709525
1746543928.1613402,0.6797839999999999,0.014152,0.010248,-25.55,3.0100000000000002,-11.830000000000002,-0.47574517825832846,-0.03506721215663355,-0.13442431326709525
1746543928.2414231,0.723216,0.037576,-0.01952,-18.900000000000002,-6.580000000000001,-7.5600000000000005,-0.47574517825832846,-0.03506721215663355,-0.13442431326709525
1746543928.328892,1.013576,0.002928,-0.045871999999999996,-11.13,-6.580000000000001,5.6000000000000005,-0.47574517825832846,-0.03506721215663355,-0.13442431326709525
1746543928.401596,1.248792,0.000488,0.081496,5.32,4.340000000000001,9.520000000000001,-0.47574517825832846,-0.03506721215663355,-0.13442431326709525
1746543928.481711,1.326384,0.008784,0.132248,16.310000000000002,2.7300000000000004,9.66,-0.47574517825832846,-0.03506721215663355,-0.13442431326709525
1746543928.5617945,1.16632,0.044407999999999996,0.193248,26.180000000000003,7.490000000000001,9.73,-0.47574517825832846,-0.03506721215663355,-0.13442431326709525
1746543928.641879,0.6353759999999999,-0.032208,0.06588,16.8,13.72,8.4,-0.47574517825832846,-0.03506721215663355,-0.13442431326709525
1746543928.7219663,0.686128,-0.036112,-0.020007999999999998,9.100000000000001,-3.6400000000000006,9.73,-0.47574517825832846,-0.03506721215663355,-0.13442431326709525
1746543928.8068466,1.053592,-0.047335999999999996,-0.010735999999999999,4.2,0.07,10.22,-0.47574517825832846,-0.03506721215663355,-0.13442431326709525
1746543928.8821392,1.235616,-0.088328,0.132248,-6.090000000000001,2.3800000000000003,3.43,-0.451198129748685,0.0,-0.15312682641729983
1746543928.9622242,1.391776,-0.12444,0.142984,-14.21,-11.13,-4.970000000000001,-0.451198129748685,0.0,-0.15312682641729983
1746543929.042357,1.084336,-0.098088,0.19178399999999998,-15.120000000000001,15.96,-5.74,-0.451198129748685,0.0,-0.15312682641729983
1746543929.1224468,0.94916,-0.042943999999999996,0.20252,-15.96,5.11,-8.96,-0.451198129748685,0.0,-0.15312682641729983
1746543929.2097187,0.669048,-0.011712,0.07124799999999999,-20.860000000000003,9.590000000000002,-15.260000000000002,-0.451198129748685,0.0,-0.15312682641729983
1746543929.282663,0.759328,0.017079999999999998,-0.003904,-12.46,-11.06,-12.88,-0.451198129748685,0.0,-0.15312682641729983
1746543929.3627126,1.0340719999999999,-0.024888,0.031232,-9.38,-12.250000000000002,-2.0300000000000002,-0.451198129748685,0.0,-0.15312682641729983
1746543929.4547591,1.251232,-0.059047999999999996,0.131272,0.7000000000000001,-8.260000000000002,-1.4000000000000001,-0.451198129748685,0.0,-0.15312682641729983
1746543929.522901,1.300032,0.015127999999999999,0.165432,10.080000000000002,-8.610000000000001,-7.000000000000001,-0.451198129748685,0.0,-0.15312682641729983
1746543929.60298,1.106296,0.097112,0.201544,19.6,3.08,-9.66,-0.451198129748685,0.0,-0.15312682641729983
1746543929.687168,0.88328,0.042456,0.146888,13.370000000000001,15.190000000000001,6.510000000000001,-0.451198129748685,0.0,-0.15312682641729983
1746543929.763152,0.656848,-0.001464,-0.015127999999999999,11.9,5.040000000000001,17.080000000000002,-0.451198129748685,0.0,-0.15312682641729983
1746543929.8432355,1.055056,0.013663999999999999,0.038551999999999996,5.8100000000000005,3.1500000000000004,16.310000000000002,-0.451198129748685,0.0,-0.15312682641729983
1746543929.9233208,1.25172,-0.053191999999999996,0.120536,-10.290000000000001,-8.05,0.8400000000000001,-0.451198129748685,0.0,-0.15312682641729983
1746543930.0034068,1.379576,-0.105408,0.153232,-20.160000000000004,-15.330000000000002,-5.32,-0.451198129748685,0.0,-0.15312682641729983
1746543930.0899625,1.11264,-0.056608,0.249856,-23.03,4.970000000000001,-2.8000000000000003,-0.451198129748685,0.0,-0.15312682641729983
1746543930.1635838,0.9027999999999999,-0.048312,0.155672,-22.470000000000002,4.69,-4.130000000000001,-0.451198129748685,0.0,-0.15312682641729983
1746543930.243689,0.633424,0.022448,0.032208,-19.39,14.21,-9.170000000000002,-0.451198129748685,0.0,-0.15312682641729983
1746543930.3237503,0.743712,0.037087999999999996,-0.013663999999999999,-20.23,-1.8200000000000003,-13.090000000000002,-0.451198129748685,0.0,-0.15312682641729983
1746543930.4038343,1.04188,0.028304,0.00244,-21.21,-10.780000000000001,-12.110000000000001,-0.451198129748685,0.0,-0.15312682641729983
1746543930.4839618,1.297592,0.029768,0.11516799999999999,-11.9,-8.610000000000001,-11.410000000000002,-0.4418468731735827,0.029222676797194622,-0.09117475160724722
1746543930.5658667,1.346392,0.074664,0.175192,2.31,-9.31,-6.0200000000000005,-0.4418468731735827,0.029222676797194622,-0.09117475160724722
1746543930.6441107,1.098,0.098088,0.260592,13.860000000000001,0.42000000000000004,8.260000000000002,-0.4418468731735827,0.029222676797194622,-0.09117475160724722
1746543930.7241929,0.840336,0.056608,0.144936,17.220000000000002,11.830000000000002,18.130000000000003,-0.4418468731735827,0.029222676797194622,-0.09117475160724722
1746543930.8042812,0.6466,0.003904,0.06588,16.03,25.62,18.900000000000002,-0.4418468731735827,0.029222676797194622,-0.09117475160724722
1746543930.8843787,0.76128,-0.02196,0.039528,11.97,-0.9800000000000001,14.350000000000001,-0.4418468731735827,0.029222676797194622,-0.09117475160724722
1746543930.968712,1.2361039999999999,-0.09272,0.128832,-0.77,-17.71,-3.6400000000000006,-0.4418468731735827,0.029222676797194622,-0.09117475160724722
1746543931.0445359,1.3297999999999999,-0.12932,0.138104,-8.96,-23.450000000000003,-8.82,-0.4418468731735827,0.029222676797194622,-0.09117475160724722
1746543931.1246488,1.1228879999999999,-0.11809599999999999,0.194712,-10.15,3.3600000000000003,-3.0100000000000002,-0.4418468731735827,0.029222676797194622,-0.09117475160724722
1746543931.2047443,0.914024,-0.072712,0.1586,-11.200000000000001,10.850000000000001,-8.47,-0.4418468731735827,0.029222676797194622,-0.09117475160724722
1746543931.284894,0.650992,0.017568,0.051727999999999996,-10.010000000000002,8.33,-7.7700000000000005,-0.4418468731735827,0.029222676797194622,-0.09117475160724722
1746543931.3717294,0.768112,0.025863999999999998,-0.008296,-8.4,-4.550000000000001,-0.21000000000000002,-0.4418468731735827,0.029222676797194622,-0.09117475160724722
1746543931.4450672,1.084336,-0.026352,0.062464,-8.96,-3.7100000000000004,3.43,-0.4418468731735827,0.029222676797194622,-0.09117475160724722
1746543931.5251505,1.245864,-0.042943999999999996,0.147376,-0.42000000000000004,-3.1500000000000004,-4.48,-0.4418468731735827,0.029222676797194622,-0.09117475160724722
1746543931.6053069,1.252696,0.008784,0.14835199999999998,4.0600000000000005,-4.2,-3.9200000000000004,-0.4418468731735827,0.029222676797194622,-0.09117475160724722
1746543931.6853445,1.103856,0.042456,0.19763999999999998,6.580000000000001,4.550000000000001,-1.54,-0.4418468731735827,0.029222676797194622,-0.09117475160724722
1746543931.7654428,0.820816,0.020007999999999998,0.167384,13.3,19.040000000000003,7.07,-0.4418468731735827,0.029222676797194622,-0.09117475160724722
1746543931.8494844,0.707112,-0.018056,0.083448,20.51,16.310000000000002,14.840000000000002,-0.4418468731735827,0.029222676797194622,-0.09117475160724722
1746543931.9256377,0.788608,-0.013176,0.032208,20.090000000000003,-0.42000000000000004,24.220000000000002,-0.4418468731735827,0.029222676797194622,-0.09117475160724722
1746543932.0057433,1.00772,-0.055632,0.042456,-12.600000000000001,-14.350000000000001,-0.49000000000000005,-0.44535359438924604,0.03272939801285798,-0.13734658094681473
1746543932.0858366,1.380552,-0.089304,0.24644,-17.92,-8.190000000000001,-7.98,-0.44535359438924604,0.03272939801285798,-0.13734658094681473
1746543932.165959,1.14436,-0.152256,0.267912,-9.31,7.5600000000000005,-6.790000000000001,-0.44535359438924604,0.03272939801285798,-0.13734658094681473
1746543932.252375,0.798856,-0.084424,0.120048,-4.41,10.15,-9.8,-0.44535359438924604,0.03272939801285798,-0.13734658094681473
1746543932.32613,0.652456,0.010735999999999999,0.03172,-3.99,-1.2600000000000002,-13.370000000000001,-0.44535359438924604,0.03272939801285798,-0.13734658094681473
1746543932.4062223,0.831552,0.00244,0.008296,-9.520000000000001,-12.46,-12.88,-0.44535359438924604,0.03272939801285798,-0.13734658094681473
1746543932.4936879,1.111176,-0.014152,0.114192,-10.500000000000002,-8.610000000000001,-8.4,-0.44535359438924604,0.03272939801285798,-0.13734658094681473
1746543932.5664065,1.246352,-0.014152,0.133712,1.12,-15.750000000000002,-5.74,-0.44535359438924604,0.03272939801285798,-0.13734658094681473
1746543932.6464982,1.2634319999999999,0.021471999999999998,0.17324,14.070000000000002,-4.550000000000001,-2.1700000000000004,-0.44535359438924604,0.03272939801285798,-0.13734658094681473
1746543932.72835,1.095072,0.020984,0.17763199999999998,21.560000000000002,13.650000000000002,5.460000000000001,-0.44535359438924604,0.03272939801285798,-0.13734658094681473
1746543932.8066823,0.821792,0.025863999999999998,0.098576,25.69,29.400000000000002,4.340000000000001,-0.44535359438924604,0.03272939801285798,-0.13734658094681473
1746543932.88675,0.680272,-0.012688,0.008784,19.250000000000004,11.270000000000001,20.580000000000002,-0.44535359438924604,0.03272939801285798,-0.13734658094681473
1746543932.966835,0.86376,-0.013176,-0.003904,15.05,-18.270000000000003,18.340000000000003,-0.44535359438924604,0.03272939801285798,-0.13734658094681473
1746543933.0469282,1.082872,-0.047335999999999996,0.069784,6.16,-15.820000000000002,5.040000000000001,-0.44535359438924604,0.03272939801285798,-0.13734658094681473
1746543933.1311367,1.267824,-0.192272,0.10052799999999999,-16.240000000000002,-16.450000000000003,2.45,-0.44535359438924604,0.03272939801285798,-0.13734658094681473
1746543933.207138,1.081408,-0.159088,0.181536,-18.340000000000003,36.400000000000006,-3.43,-0.44535359438924604,0.03272939801285798,-0.13734658094681473
1746543933.2872298,0.687592,-0.099552,0.071736,-26.180000000000003,22.96,-12.46,-0.44535359438924604,0.03272939801285798,-0.13734658094681473
1746543933.3672948,0.777872,-0.037576,-0.026352,-28.980000000000004,-19.67,-15.120000000000001,-0.44535359438924604,0.03272939801285798,-0.13734658094681473
1746543933.447396,0.887184,-0.003904,0.005856,-27.44,-3.8500000000000005,-1.8900000000000001,-0.44535359438924604,0.03272939801285798,-0.13734658094681473
1746543933.527473,1.06384,-0.025376,0.1464,-15.540000000000001,-2.87,3.0100000000000002,-0.44535359438924604,0.03272939801285798,-0.13734658094681473
1746543933.6075532,1.238056,0.015127999999999999,0.062952,-3.43,-30.660000000000004,-1.54,-0.4804208065458796,0.018702513150204558,-0.08825248392752776
1746543933.6876514,1.272216,0.093208,0.093696,9.520000000000001,3.7100000000000004,-7.5600000000000005,-0.4804208065458796,0.018702513150204558,-0.08825248392752776
1746543933.7677426,1.124352,0.061975999999999996,0.196176,17.990000000000002,46.690000000000005,6.300000000000001,-0.4804208065458796,0.018702513150204558,-0.08825248392752776
1746543933.8478203,0.75396,0.057096,0.167384,25.200000000000003,33.18,16.310000000000002,-0.4804208065458796,0.018702513150204558,-0.08825248392752776
1746543933.9279084,0.7198,-0.05368,-0.003904,24.570000000000004,-3.6400000000000006,9.73,-0.4804208065458796,0.018702513150204558,-0.08825248392752776
1746543934.0118914,0.889624,-0.072224,0.014152,26.810000000000002,-7.3500000000000005,2.31,-0.4804208065458796,0.018702513150204558,-0.08825248392752776
1746543934.088076,1.053592,0.002928,0.060024,17.64,-19.040000000000003,6.790000000000001,-0.4804208065458796,0.018702513150204558,-0.08825248392752776
1746543934.1682093,1.25416,-0.058072,0.090768,-4.83,-18.69,4.69,-0.4804208065458796,0.018702513150204558,-0.08825248392752776
1746543934.248293,1.266848,-0.133224,0.199104,-12.39,18.76,-0.14,-0.4804208065458796,0.018702513150204558,-0.08825248392752776
1746543934.3283834,0.807152,-0.057583999999999996,0.117608,-6.720000000000001,19.32,-4.2700000000000005,-0.4804208065458796,0.018702513150204558,-0.08825248392752776
1746543934.4293594,0.680272,-0.01464,0.061,-8.05,7.630000000000001,-13.72,-0.4804208065458796,0.018702513150204558,-0.08825248392752776
1746543934.4913259,0.8793759999999999,-0.035623999999999996,0.07124799999999999,-10.500000000000002,-18.060000000000002,-12.670000000000002,-0.4804208065458796,0.018702513150204558,-0.08825248392752776
1746543934.5686305,1.187792,-0.033672,0.168848,-5.040000000000001,-15.47,-4.41,-0.4804208065458796,0.018702513150204558,-0.08825248392752776
1746543934.6487193,1.269776,-0.045871999999999996,0.164456,6.720000000000001,-14.770000000000001,3.0100000000000002,-0.4804208065458796,0.018702513150204558,-0.08825248392752776
1746543934.7288105,1.183888,0.038064,0.183,20.020000000000003,-3.99,0.21000000000000002,-0.4804208065458796,0.018702513150204558,-0.08825248392752776
1746543934.808891,1.015528,0.055144,0.198128,23.03,12.950000000000001,8.540000000000001,-0.4804208065458796,0.018702513150204558,-0.08825248392752776
1746543934.8941329,0.7671359999999999,0.018543999999999998,0.087352,24.64,10.71,20.930000000000003,-0.4804208065458796,0.018702513150204558,-0.08825248392752776
1746543934.9690757,0.702232,0.0,0.022935999999999998,23.03,3.7800000000000002,18.060000000000002,-0.4804208065458796,0.018702513150204558,-0.08825248392752776
1746543935.0491712,0.864736,0.000488,0.02196,17.64,-6.44,9.38,-0.4804208065458796,0.018702513150204558,-0.08825248392752776
1746543935.129268,1.160952,-0.020496,0.104432,8.4,-10.010000000000002,-3.7800000000000002,-0.4488603156049094,-0.018702513150204558,-0.1548801870251315
1746543935.2093706,1.303448,-0.089792,0.145912,-2.7300000000000004,-5.250000000000001,-8.540000000000001,-0.4488603156049094,-0.018702513150204558,-0.1548801870251315
1746543935.2967873,1.249768,-0.12834399999999999,0.233264,-13.72,9.31,-13.3,-0.4488603156049094,-0.018702513150204558,-0.1548801870251315
1746543935.3695233,1.096536,-0.11468,0.22204,-13.72,9.31,-13.3,-0.4488603156049094,-0.018702513150204558,-0.1548801870251315
1746543935.4496193,0.669048,-0.010735999999999999,0.00976,-14.21,-9.170000000000002,-13.090000000000002,-0.4488603156049094,-0.018702513150204558,-0.1548801870251315
1746543935.5297122,0.916952,-0.032208,0.057583999999999996,-14.350000000000001,-10.57,3.0100000000000002,-0.4488603156049094,-0.018702513150204558,-0.1548801870251315
1746543935.6097827,1.151192,-0.049288,0.155184,-7.000000000000001,2.31,11.9,-0.4488603156049094,-0.018702513150204558,-0.1548801870251315
1746543935.6898687,1.23708,-0.026352,0.126392,1.4700000000000002,-13.580000000000002,2.1,-0.4488603156049094,-0.018702513150204558,-0.1548801870251315
1746543935.7745957,1.2409839999999999,0.062952,0.244,10.290000000000001,-7.98,-14.21,-0.4488603156049094,-0.018702513150204558,-0.1548801870251315
1746543935.8500412,1.009672,0.029768,0.227408,11.620000000000001,12.950000000000001,-3.0100000000000002,-0.4488603156049094,-0.018702513150204558,-0.1548801870251315
1746543935.9301515,0.723704,0.02684,0.079056,15.330000000000002,18.130000000000003,-2.31,-0.4488603156049094,-0.018702513150204558,-0.1548801870251315
1746543936.0102365,0.689056,-0.000488,-0.00732,13.160000000000002,1.2600000000000002,10.010000000000002,-0.4488603156049094,-0.018702513150204558,-0.1548801870251315
1746543936.0903254,0.920856,0.012199999999999999,0.016592,13.090000000000002,-5.6000000000000005,15.890000000000002,-0.4488603156049094,-0.018702513150204558,-0.1548801870251315
1746543936.1775072,1.183888,-0.02196,0.128832,0.49000000000000005,-10.99,7.140000000000001,-0.4488603156049094,-0.018702513150204558,-0.1548801870251315
1746543936.2505195,1.3395599999999999,-0.150792,0.152256,-18.69,-21.28,-1.2600000000000002,-0.4488603156049094,-0.018702513150204558,-0.1548801870251315
1746543936.3306031,1.209752,-0.157624,0.228872,-23.590000000000003,-0.9800000000000001,-11.340000000000002,-0.4488603156049094,-0.018702513150204558,-0.1548801870251315
1746543936.4225235,0.996008,-0.120536,0.15616,-27.160000000000004,19.040000000000003,-5.390000000000001,-0.4488603156049094,-0.018702513150204558,-0.1548801870251315
1746543936.4907773,0.752984,0.014152,0.072224,-27.160000000000004,19.040000000000003,-5.390000000000001,-0.4488603156049094,-0.018702513150204558,-0.1548801870251315
1746543936.57087,0.950136,-0.01952,0.041479999999999996,-18.970000000000002,-16.87,3.6400000000000006,-0.4488603156049094,-0.018702513150204558,-0.1548801870251315
1746543936.6549425,1.165344,-0.006344,0.13663999999999998,-7.420000000000001,-10.290000000000001,3.7800000000000002,-0.4663939216832262,0.014026884862653419,-0.12390414962010521
1746543936.7310941,1.299544,0.009271999999999999,0.157624,5.53,-18.340000000000003,0.35000000000000003,-0.4663939216832262,0.014026884862653419,-0.12390414962010521
1746543936.8111365,1.17852,0.081008,0.20349599999999998,19.250000000000004,-6.580000000000001,-2.9400000000000004,-0.4663939216832262,0.014026884862653419,-0.12390414962010521
1746543936.8912187,0.971608,0.037576,0.179584,21.07,16.8,4.69,-0.4663939216832262,0.014026884862653419,-0.12390414962010521
1746543936.971314,0.64416,0.002928,0.054655999999999996,16.87,22.750000000000004,3.99,-0.4663939216832262,0.014026884862653419,-0.12390414962010521
1746543937.0577412,0.7056479999999999,-0.023912,-0.018056,11.55,2.3800000000000003,11.620000000000001,-0.4663939216832262,0.014026884862653419,-0.12390414962010521
1746543937.1314692,0.972584,-0.02684,0.023424,10.290000000000001,4.760000000000001,17.990000000000002,-0.4663939216832262,0.014026884862653419,-0.12390414962010521
1746543937.2116208,1.217072,-0.061488,0.122488,1.05,1.1900000000000002,7.910000000000001,-0.4663939216832262,0.014026884862653419,-0.12390414962010521
1746543937.2917538,1.36884,-0.125904,0.17177599999999998,-12.46,-15.190000000000001,-3.43,-0.4663939216832262,0.014026884862653419,-0.12390414962010521
1746543937.371799,1.158024,-0.147376,0.217648,-14.21,-1.7500000000000002,-7.700000000000001,-0.4663939216832262,0.014026884862653419,-0.12390414962010521
1746543937.451906,1.022848,-0.132736,0.18056,-16.310000000000002,-4.0600000000000005,-8.190000000000001,-0.4663939216832262,0.014026884862653419,-0.12390414962010521
1746543937.533707,0.677344,0.0068319999999999995,0.059047999999999996,-19.950000000000003,16.520000000000003,-16.94,-0.4663939216832262,0.014026884862653419,-0.12390414962010521
1746543937.6120708,0.696864,0.025376,-0.005856,-17.5,3.7800000000000002,-17.220000000000002,-0.4663939216832262,0.014026884862653419,-0.12390414962010521
1746543937.6921492,1.191208,0.020984,0.12395199999999999,-0.6300000000000001,-5.6000000000000005,1.4000000000000001,-0.4663939216832262,0.014026884862653419,-0.12390414962010521
1746543937.7722428,1.294176,0.020007999999999998,0.1586,14.700000000000001,-11.760000000000002,4.69,-0.4663939216832262,0.014026884862653419,-0.12390414962010521
1746543937.8523219,1.2078,0.072224,0.279624,24.64,5.8100000000000005,6.790000000000001,-0.4663939216832262,0.014026884862653419,-0.12390414962010521
1746543937.936509,0.9989359999999999,0.033184,0.195688,21.35,15.610000000000001,9.520000000000001,-0.4663939216832262,0.014026884862653419,-0.12390414962010521
1746543938.012487,0.697352,0.0053679999999999995,0.051727999999999996,21.21,24.71,9.66,-0.4663939216832262,0.014026884862653419,-0.12390414962010521
1746543938.0925915,0.6871039999999999,0.0068319999999999995,-0.0053679999999999995,20.37,2.45,18.130000000000003,-0.4663939216832262,0.014026884862653419,-0.12390414962010521
1746543938.1727166,0.942816,-0.027327999999999998,0.047824,15.190000000000001,-7.700000000000001,21.14,-0.4663939216832262,0.014026884862653419,-0.12390414962010521
1746543938.252781,1.165344,-0.08881599999999999,0.166408,2.87,-5.880000000000001,2.7300000000000004,-0.4441846873173583,0.008182349503214495,-0.16715371127995324
1746543938.3393857,1.385432,-0.171288,0.174216,-11.690000000000001,-26.810000000000002,-9.520000000000001,-0.4441846873173583,0.008182349503214495,-0.16715371127995324
1746543938.4129512,1.14436,-0.146888,0.21716,-13.440000000000001,2.1,-7.7700000000000005,-0.4441846873173583,0.008182349503214495,-0.16715371127995324
1746543938.4930313,1.0248,-0.143472,0.1708,-15.540000000000001,9.66,-9.450000000000001,-0.4441846873173583,0.008182349503214495,-0.16715371127995324
1746543938.573136,0.67588,0.02196,0.072712,-17.01,28.910000000000004,-21.14,-0.4441846873173583,0.008182349503214495,-0.16715371127995324
1746543938.6532068,0.69296,0.017079999999999998,0.020007999999999998,-21.07,-2.1,-17.71,-0.4441846873173583,0.008182349503214495,-0.16715371127995324
1746543938.7332883,0.967216,-0.03172,0.044407999999999996,-22.820000000000004,-23.87,1.9600000000000002,-0.4441846873173583,0.008182349503214495,-0.16715371127995324
1746543938.8172877,1.3273599999999999,-0.054655999999999996,0.23277599999999998,5.6000000000000005,-8.680000000000001,10.010000000000002,-0.4441846873173583,0.008182349503214495,-0.16715371127995324
1746543938.8934734,1.12484,0.050263999999999996,0.241072,16.03,9.870000000000001,-3.7100000000000004,-0.4441846873173583,0.008182349503214495,-0.16715371127995324
1746543938.9735599,0.933056,0.076616,0.15372,19.110000000000003,13.090000000000002,-7.7700000000000005,-0.4441846873173583,0.008182349503214495,-0.16715371127995324
1746543939.0536394,0.726144,0.014152,0.047824,22.12,29.540000000000003,4.0600000000000005,-0.4441846873173583,0.008182349503214495,-0.16715371127995324
1746543939.133731,0.75152,0.0068319999999999995,-0.00244,23.94,6.790000000000001,20.930000000000003,-0.4441846873173583,0.008182349503214495,-0.16715371127995324
1746543939.2201033,0.9516,-0.032695999999999996,0.03172,15.05,-16.66,19.39,-0.4441846873173583,0.008182349503214495,-0.16715371127995324
1746543939.2939372,1.19316,-0.13176,0.156648,-3.99,-20.020000000000003,5.8100000000000005,-0.4441846873173583,0.008182349503214495,-0.16715371127995324
1746543939.3740125,1.3790879999999999,-0.17324,0.20691199999999998,-16.03,-20.090000000000003,-2.0300000000000002,-0.4441846873173583,0.008182349503214495,-0.16715371127995324
1746543939.4650807,1.219512,-0.14396,0.262056,-15.750000000000002,5.390000000000001,-9.100000000000001,-0.4441846873173583,0.008182349503214495,-0.16715371127995324
1746543939.5341969,0.95892,-0.098576,0.15372,-21.000000000000004,5.180000000000001,-18.900000000000002,-0.4441846873173583,0.008182349503214495,-0.16715371127995324
1746543939.614281,0.748104,0.015616,0.035136,-26.250000000000004,5.460000000000001,-23.730000000000004,-0.4441846873173583,0.008182349503214495,-0.16715371127995324
1746543939.6975124,0.698328,0.020496,0.000976,-24.500000000000004,15.260000000000002,-9.31,-0.4441846873173583,0.008182349503214495,-0.16715371127995324
1746543939.774446,0.922808,-0.042456,0.073688,-16.87,-8.120000000000001,5.250000000000001,-0.46171829339567505,0.004675628287551139,-0.1256575102279369
1746543939.8545306,1.126792,-0.018543999999999998,0.114192,-2.66,-14.070000000000002,1.7500000000000002,-0.46171829339567505,0.004675628287551139,-0.1256575102279369
1746543939.934613,1.350296,0.105896,0.295728,6.580000000000001,26.6,-13.370000000000001,-0.46171829339567505,0.004675628287551139,-0.1256575102279369
1746543940.014698,0.93452,0.05124,0.178608,5.670000000000001,12.600000000000001,11.760000000000002,-0.46171829339567505,0.004675628287551139,-0.1256575102279369
1746543940.100318,0.749568,0.019032,0.077592,8.4,-2.45,9.030000000000001,-0.46171829339567505,0.004675628287551139,-0.1256575102279369
1746543940.1749163,0.808616,-0.0068319999999999995,0.047335999999999996,9.520000000000001,0.14,10.15,-0.46171829339567505,0.004675628287551139,-0.1256575102279369
1746543940.2549944,0.9730719999999999,0.0068319999999999995,0.105896,12.39,-5.670000000000001,19.110000000000003,-0.46171829339567505,0.004675628287551139,-0.1256575102279369
1746543940.3351004,1.21756,-0.057096,0.127368,0.35000000000000003,-21.07,16.450000000000003,-0.46171829339567505,0.004675628287551139,-0.1256575102279369
1746543940.4151473,1.365424,-0.139568,0.19763999999999998,-8.82,3.08,6.23,-0.46171829339567505,0.004675628287551139,-0.1256575102279369
1746543940.4952447,0.9706319999999999,-0.12444,0.174704,-9.31,22.680000000000003,-2.87,-0.46171829339567505,0.004675628287551139,-0.1256575102279369
1746543940.576063,0.930128,-0.137616,0.157624,-19.53,-26.53,-13.020000000000001,-0.46171829339567505,0.004675628287551139,-0.1256575102279369
1746543940.6554022,0.618296,0.000488,0.035623999999999996,-21.490000000000002,-7.140000000000001,-18.62,-0.46171829339567505,0.004675628287551139,-0.1256575102279369
1746543940.735493,0.636352,-0.02196,0.015616,-20.37,-13.23,-5.460000000000001,-0.46171829339567505,0.004675628287551139,-0.1256575102279369
1746543940.8155694,0.877424,-0.032695999999999996,0.061488,-21.910000000000004,-7.280000000000001,2.31,-0.46171829339567505,0.004675628287551139,-0.1256575102279369
1746543940.895663,1.098488,-0.017079999999999998,0.138592,-13.370000000000001,5.8100000000000005,3.08,-0.46171829339567505,0.004675628287551139,-0.1256575102279369
1746543940.9796183,1.301984,0.05856,0.157624,25.060000000000002,16.450000000000003,2.0300000000000002,-0.46171829339567505,0.004675628287551139,-0.1256575102279369
1746543941.0558605,1.194624,0.10248,0.25668799999999997,22.820000000000004,38.36000000000001,11.06,-0.46171829339567505,0.004675628287551139,-0.1256575102279369
1746543941.1359427,0.694912,-0.03904,0.10492,21.98,38.36000000000001,18.340000000000003,-0.46171829339567505,0.004675628287551139,-0.1256575102279369
1746543941.2160866,0.742736,-0.05856,-0.012199999999999999,19.950000000000003,0.77,22.19,-0.46171829339567505,0.004675628287551139,-0.1256575102279369
1746543941.296157,1.022848,-0.090768,0.00732,18.69,-6.370000000000001,17.78,-0.46171829339567505,0.004675628287551139,-0.1256575102279369
1746543941.3825326,1.22732,-0.102968,0.122,6.23,-18.970000000000002,2.5200000000000005,-0.43717124488603154,0.03506721215663355,-0.15721800116890708
