Timestamp,Accel X,Accel Y,Accel Z,Gyro X,Gyro Y,Gyro Z,Magneto X,Magneto Y,Magneto Z
1746544125.5673182,0.886208,-0.01464,0.141032,-11.97,5.250000000000001,-2.5900000000000003,-0.39158386908240794,-0.05493863237872589,-0.19871420222092342
1746544125.5721395,0.8784,-0.0366,0.139568,-11.06,3.08,-2.45,-0.39158386908240794,-0.05493863237872589,-0.19871420222092342
1746544125.577013,0.901824,-0.057096,0.140544,-9.73,1.2600000000000002,-2.1700000000000004,-0.39158386908240794,-0.05493863237872589,-0.19871420222092342
1746544125.5818734,0.909632,-0.059536,0.143472,-8.610000000000001,-0.21000000000000002,-2.45,-0.39158386908240794,-0.05493863237872589,-0.19871420222092342
1746544125.5867448,0.945256,-0.056608,0.142984,-7.700000000000001,-1.4700000000000002,-2.87,-0.39158386908240794,-0.05493863237872589,-0.19871420222092342
1746544125.591614,0.9496479999999999,-0.043432,0.13908,-6.790000000000001,-2.24,-3.43,-0.39158386908240794,-0.05493863237872589,-0.19871420222092342
1746544125.5964851,0.940376,-0.038064,0.151768,-6.16,-2.1,-3.43,-0.39158386908240794,-0.05493863237872589,-0.19871420222092342
1746544125.6014094,0.916464,-0.020007999999999998,0.167384,-5.32,-2.3800000000000003,-3.8500000000000005,-0.39158386908240794,-0.05493863237872589,-0.19871420222092342
1746544125.6062562,0.957944,-0.022935999999999998,0.173728,-4.62,-3.22,-3.8500000000000005,-0.39158386908240794,-0.05493863237872589,-0.19871420222092342
1746544125.6111228,0.9964959999999999,-0.05124,0.172264,-3.8500000000000005,-2.87,-4.550000000000001,-0.39158386908240794,-0.05493863237872589,-0.19871420222092342
1746544125.615997,1.011136,-0.054168,0.191296,-2.9400000000000004,-1.8900000000000001,-6.23,-0.39158386908240794,-0.05493863237872589,-0.19871420222092342
1746544125.6208668,1.025288,-0.049776,0.193248,-2.0300000000000002,-1.4000000000000001,-7.700000000000001,-0.39158386908240794,-0.05493863237872589,-0.19871420222092342
1746544125.6257384,1.031144,-0.048799999999999996,0.19519999999999998,-1.1900000000000002,-0.49000000000000005,-8.680000000000001,-0.39158386908240794,-0.05493863237872589,-0.19871420222092342
1746544125.6306133,1.027728,-0.047335999999999996,0.193736,-0.49000000000000005,2.0300000000000002,-9.24,-0.39158386908240794,-0.05493863237872589,-0.19871420222092342
1746544125.6354802,1.003816,-0.060511999999999996,0.178608,0.6300000000000001,3.08,-9.590000000000002,-0.39158386908240794,-0.05493863237872589,-0.19871420222092342
1746544125.640352,0.96868,-0.0732,0.122488,0.9800000000000001,3.5700000000000003,-9.73,-0.39158386908240794,-0.05493863237872589,-0.19871420222092342
1746544125.6452227,0.925248,-0.08003199999999999,0.186904,1.7500000000000002,4.340000000000001,-9.170000000000002,-0.39158386908240794,-0.05493863237872589,-0.19871420222092342
1746544125.6501012,0.9852719999999999,-0.00488,0.198616,2.5200000000000005,2.5200000000000005,-9.940000000000001,-0.39158386908240794,-0.05493863237872589,-0.19871420222092342
1746544125.6549704,1.025776,-0.088328,0.16836,2.31,7.000000000000001,-10.15,-0.39158386908240794,-0.05493863237872589,-0.19871420222092342
1746544125.6598392,0.9472079999999999,-0.061,0.269864,2.24,11.200000000000001,-10.64,-0.39158386908240794,-0.05493863237872589,-0.19871420222092342
1746544125.664712,0.962824,-0.087352,0.19276,2.31,8.680000000000001,-9.66,-0.39158386908240794,-0.05376972530683811,-0.21683226183518411
1746544125.66958,1.013576,-0.112728,0.178608,2.5200000000000005,9.590000000000002,-9.24,-0.3728813559322034,-0.05376972530683811,-0.21683226183518411
1746544125.6744497,1.050176,-0.096624,0.183976,2.8000000000000003,11.200000000000001,-8.540000000000001,-0.3728813559322034,-0.05376972530683811,-0.21683226183518411
1746544125.6793191,1.062376,-0.111752,0.145424,3.22,11.48,-8.120000000000001,-0.3728813559322034,-0.05376972530683811,-0.21683226183518411
1746544125.6841922,1.03212,-0.126392,0.140544,3.7800000000000002,12.81,-7.910000000000001,-0.3728813559322034,-0.05376972530683811,-0.21683226183518411
1746544125.6890638,1.04676,-0.11956,0.164456,4.62,13.790000000000001,-8.47,-0.3728813559322034,-0.05376972530683811,-0.21683226183518411
1746544125.6939332,1.061888,-0.10345599999999999,0.169336,5.390000000000001,13.790000000000001,-8.89,-0.3728813559322034,-0.05376972530683811,-0.21683226183518411
1746544125.6988032,1.027728,-0.108824,0.136152,5.95,14.070000000000002,-9.030000000000001,-0.3728813559322034,-0.05376972530683811,-0.21683226183518411
1746544125.703675,0.999912,-0.101016,0.14884,6.580000000000001,14.700000000000001,-9.100000000000001,-0.3728813559322034,-0.05376972530683811,-0.21683226183518411
1746544125.7085464,1.017968,-0.107848,0.145912,7.280000000000001,13.790000000000001,-9.100000000000001,-0.3728813559322034,-0.05376972530683811,-0.21683226183518411
1746544125.713416,1.045296,-0.10931199999999999,0.142008,8.05,13.370000000000001,-9.24,-0.3728813559322034,-0.05376972530683811,-0.21683226183518411
1746544125.7182858,1.0267519999999999,-0.1098,0.126392,8.82,13.580000000000002,-9.73,-0.3728813559322034,-0.05376972530683811,-0.21683226183518411
1746544125.7231584,1.013088,-0.11809599999999999,0.124928,9.590000000000002,13.860000000000001,-10.010000000000002,-0.3728813559322034,-0.05376972530683811,-0.21683226183518411
1746544125.728031,1.003328,-0.131272,0.121512,10.500000000000002,13.860000000000001,-10.290000000000001,-0.3728813559322034,-0.05376972530683811,-0.21683226183518411
1746544125.732902,1.006744,-0.13663999999999998,0.120536,11.620000000000001,13.790000000000001,-10.71,-0.3728813559322034,-0.05376972530683811,-0.21683226183518411
1746544125.737771,1.003816,-0.1464,0.11809599999999999,12.81,13.580000000000002,-11.06,-0.3728813559322034,-0.05376972530683811,-0.21683226183518411
1746544125.7426503,1.01504,-0.153232,0.114192,14.070000000000002,13.510000000000002,-12.46,-0.3728813559322034,-0.05376972530683811,-0.21683226183518411
1746544125.7475216,1.016504,-0.152256,0.113216,15.120000000000001,13.930000000000001,-12.670000000000002,-0.3728813559322034,-0.05376972530683811,-0.21683226183518411
1746544125.7523944,1.008696,-0.149816,0.116632,17.290000000000003,13.72,-12.740000000000002,-0.3728813559322034,-0.05376972530683811,-0.21683226183518411
1746544125.7572637,1.004304,-0.14835199999999998,0.12395199999999999,18.060000000000002,13.160000000000002,-12.88,-0.3728813559322034,-0.05376972530683811,-0.21683226183518411
1746544125.7621377,1.009672,-0.140544,0.244976,18.62,12.250000000000002,-13.23,-0.3728813559322034,-0.05376972530683811,-0.21683226183518411
1746544125.7738113,1.008208,-0.13419999999999999,0.129808,18.970000000000002,9.870000000000001,-13.580000000000002,-0.3728813559322034,-0.05376972530683811,-0.21683226183518411
1746544125.776823,0.976,-0.13176,0.127368,19.53,8.260000000000002,-13.790000000000001,-0.3728813559322034,-0.05376972530683811,-0.21683226183518411
1746544125.7816749,0.976488,-0.132248,0.131272,19.810000000000002,6.23,-13.650000000000002,-0.3728813559322034,-0.05376972530683811,-0.21683226183518411
1746544125.7865434,0.987224,-0.137128,0.131272,19.950000000000003,4.69,-13.160000000000002,-0.3728813559322034,-0.05376972530683811,-0.21683226183518411
1746544125.7914248,0.984296,-0.138592,0.121512,20.020000000000003,3.3600000000000003,-12.950000000000001,-0.3728813559322034,-0.05376972530683811,-0.21683226183518411
1746544125.7962918,0.974536,-0.14152,0.123464,20.23,2.31,-12.88,-0.3728813559322034,-0.05376972530683811,-0.21683226183518411
1746544125.8011596,0.9916159999999999,-0.145424,0.141032,20.44,1.05,-12.530000000000001,-0.3728813559322034,-0.05376972530683811,-0.21683226183518411
1746544125.8060248,1.023824,-0.140544,0.128832,20.580000000000002,-0.42000000000000004,-11.760000000000002,-0.3728813559322034,-0.05376972530683811,-0.21683226183518411
1746544125.810891,1.039928,-0.150304,0.115656,20.580000000000002,-0.6300000000000001,-10.64,-0.3728813559322034,-0.05376972530683811,-0.21683226183518411
1746544125.8157601,1.023824,-0.14835199999999998,0.150792,20.790000000000003,-0.28,-9.940000000000001,-0.3728813559322034,-0.05376972530683811,-0.21683226183518411
1746544125.8206286,1.006744,-0.14005599999999999,0.147376,20.860000000000003,-1.4700000000000002,-9.450000000000001,-0.3728813559322034,-0.05376972530683811,-0.21683226183518411
1746544125.828462,0.99064,-0.158112,0.130296,21.000000000000004,-1.9600000000000002,-9.450000000000001,-0.3728813559322034,-0.05376972530683811,-0.21683226183518411
1746544125.8313391,0.96868,-0.14835199999999998,0.14005599999999999,21.000000000000004,-1.9600000000000002,-9.450000000000001,-0.3728813559322034,-0.05376972530683811,-0.21683226183518411
1746544125.8362033,0.96868,-0.14884,0.132736,20.860000000000003,-2.31,-10.080000000000002,-0.3728813559322034,-0.05376972530683811,-0.21683226183518411
1746544125.841072,0.98576,-0.153232,0.125416,20.790000000000003,-1.8200000000000003,-11.340000000000002,-0.3728813559322034,-0.05376972530683811,-0.21683226183518411
1746544125.8459382,0.9779519999999999,-0.14884,0.103944,21.42,-0.7000000000000001,-11.97,-0.3728813559322034,-0.05376972530683811,-0.21683226183518411
1746544125.8508067,0.930616,-0.18348799999999998,0.084424,22.26,1.05,-12.740000000000002,-0.3728813559322034,-0.05376972530683811,-0.21683226183518411
1746544125.8556745,0.9101199999999999,-0.143472,0.125904,23.03,1.4700000000000002,-11.270000000000001,-0.3728813559322034,-0.05376972530683811,-0.21683226183518411
1746544125.8605428,0.974536,-0.142008,0.120048,23.450000000000003,2.31,-9.73,-0.3717124488603156,-0.0771478667445938,-0.23553477498538866
1746544125.8654082,1.070184,-0.114192,0.162016,23.240000000000002,6.0200000000000005,-9.590000000000002,-0.3717124488603156,-0.0771478667445938,-0.23553477498538866
1746544125.8702767,0.987712,-0.10492,0.224968,22.680000000000003,7.630000000000001,-9.38,-0.3717124488603156,-0.0771478667445938,-0.23553477498538866
1746544125.8751445,0.95648,-0.11468,0.2196,21.490000000000002,6.0200000000000005,-9.38,-0.3717124488603156,-0.0771478667445938,-0.23553477498538866
1746544125.8824894,0.935008,-0.125416,0.21520799999999998,20.23,5.95,-10.080000000000002,-0.3717124488603156,-0.0771478667445938,-0.23553477498538866
1746544125.8853416,0.975024,-0.101992,0.249368,19.250000000000004,6.0200000000000005,-9.870000000000001,-0.3717124488603156,-0.0771478667445938,-0.23553477498538866
1746544125.8902051,1.091656,-0.130296,0.213744,18.48,4.130000000000001,-7.630000000000001,-0.3717124488603156,-0.0771478667445938,-0.23553477498538866
1746544125.8950727,1.11996,-0.145912,0.17812,17.78,6.930000000000001,-5.8100000000000005,-0.3717124488603156,-0.0771478667445938,-0.23553477498538866
1746544125.8999417,1.039928,-0.149816,0.242536,17.360000000000003,10.57,-4.9,-0.3717124488603156,-0.0771478667445938,-0.23553477498538866
1746544125.9048262,1.042856,-0.153232,0.240096,16.8,9.520000000000001,-3.7800000000000002,-0.3717124488603156,-0.0771478667445938,-0.23553477498538866
1746544125.9096882,1.070672,-0.165432,0.213256,16.1,9.450000000000001,-2.66,-0.3717124488603156,-0.0771478667445938,-0.23553477498538866
1746544125.9145515,1.053592,-0.142008,0.240584,15.47,10.71,-1.61,-0.3717124488603156,-0.0771478667445938,-0.23553477498538866
1746544125.9194212,1.057496,-0.14152,0.278648,14.700000000000001,10.080000000000002,0.42000000000000004,-0.3717124488603156,-0.0771478667445938,-0.23553477498538866
1746544125.9242904,1.101416,-0.125904,0.29670399999999997,13.370000000000001,8.680000000000001,2.1700000000000004,-0.3717124488603156,-0.0771478667445938,-0.23553477498538866
1746544125.929158,1.094584,-0.15420799999999998,0.299632,11.340000000000002,8.47,4.0600000000000005,-0.3717124488603156,-0.0771478667445938,-0.23553477498538866
1746544125.9355671,0.988688,-0.132736,0.321592,7.210000000000001,7.840000000000001,3.8500000000000005,-0.3717124488603156,-0.0771478667445938,-0.23553477498538866
1746544125.9388928,0.988688,-0.132736,0.321592,7.210000000000001,7.840000000000001,3.8500000000000005,-0.3717124488603156,-0.0771478667445938,-0.23553477498538866
1746544125.94376,1.020408,-0.14396,0.298656,4.970000000000001,6.790000000000001,5.6000000000000005,-0.3717124488603156,-0.0771478667445938,-0.23553477498538866
1746544125.9486275,1.055544,-0.150304,0.28499199999999997,1.54,7.700000000000001,5.460000000000001,-0.3717124488603156,-0.0771478667445938,-0.23553477498538866
1746544125.9534981,1.0365119999999999,-0.168848,0.219112,0.9100000000000001,10.430000000000001,5.74,-0.3717124488603156,-0.0771478667445938,-0.23553477498538866
1746544125.9583623,1.019432,-0.162016,0.218136,0.49000000000000005,11.48,7.280000000000001,-0.3717124488603156,-0.0771478667445938,-0.23553477498538866
1746544125.9632304,1.074576,-0.160552,0.20008,-0.42000000000000004,12.46,9.450000000000001,-0.3717124488603156,-0.0771478667445938,-0.23553477498538866
1746544125.968099,1.111664,-0.145424,0.226432,-1.8900000000000001,15.120000000000001,11.270000000000001,-0.3717124488603156,-0.0771478667445938,-0.23553477498538866
1746544125.9729776,1.030168,-0.208864,0.315736,-3.22,13.790000000000001,13.72,-0.3717124488603156,-0.0771478667445938,-0.23553477498538866
1746544125.9778407,1.104344,-0.205936,0.196176,-4.340000000000001,8.89,13.930000000000001,-0.3717124488603156,-0.0771478667445938,-0.23553477498538866
1746544125.9827104,1.0931199999999999,-0.188368,0.217648,-5.6000000000000005,11.9,13.23,-0.3717124488603156,-0.0771478667445938,-0.23553477498538866
1746544125.9886577,1.033096,-0.17324,0.20935199999999998,-6.720000000000001,11.97,14.000000000000002,-0.3717124488603156,-0.0771478667445938,-0.23553477498538866
1746544125.9924445,0.9916159999999999,-0.166408,0.133712,-7.700000000000001,11.200000000000001,13.860000000000001,-0.3717124488603156,-0.0771478667445938,-0.23553477498538866
1746544125.9972763,0.911584,-0.21716,0.066856,-7.7700000000000005,12.110000000000001,12.040000000000001,-0.3717124488603156,-0.0771478667445938,-0.23553477498538866
1746544126.0021424,0.9311039999999999,-0.187392,0.154696,-6.580000000000001,13.790000000000001,10.850000000000001,-0.3717124488603156,-0.0771478667445938,-0.23553477498538866
1746544126.0070202,0.976,-0.13419999999999999,0.083448,-5.95,11.9,11.270000000000001,-0.3717124488603156,-0.0771478667445938,-0.23553477498538866
1746544126.0118861,0.9286639999999999,-0.137616,0.128832,-6.23,15.890000000000002,12.46,-0.3717124488603156,-0.0771478667445938,-0.23553477498538866
1746544126.0167537,0.82228,-0.14884,0.162016,-7.000000000000001,16.87,12.600000000000001,-0.3717124488603156,-0.0771478667445938,-0.23553477498538866
1746544126.0216248,0.864736,-0.230824,0.19032,-7.210000000000001,13.23,14.070000000000002,-0.3717124488603156,-0.0771478667445938,-0.23553477498538866
1746544126.0264902,1.040904,-0.23033599999999999,0.177144,-6.720000000000001,8.89,14.560000000000002,-0.3717124488603156,-0.0771478667445938,-0.23553477498538866
1746544126.0313585,1.13948,-0.176168,0.17177599999999998,-7.210000000000001,9.24,12.110000000000001,-0.3717124488603156,-0.0771478667445938,-0.23553477498538866
1746544126.036229,1.05896,-0.157136,0.227896,-9.100000000000001,11.97,10.780000000000001,-0.3717124488603156,-0.0771478667445938,-0.23553477498538866
1746544126.041807,0.9237839999999999,-0.196664,0.205936,-10.71,10.430000000000001,11.200000000000001,-0.3717124488603156,-0.0771478667445938,-0.23553477498538866
1746544126.0459697,0.888648,-0.211304,0.183976,-11.690000000000001,8.540000000000001,11.200000000000001,-0.3717124488603156,-0.0771478667445938,-0.23553477498538866
1746544126.0508356,0.896456,-0.201544,0.187392,-12.180000000000001,7.140000000000001,10.850000000000001,-0.3611922852133255,-0.08883693746347165,-0.2536528345996493
1746544126.0557022,0.9681919999999999,-0.17177599999999998,0.18788,-12.530000000000001,5.460000000000001,10.920000000000002,-0.3611922852133255,-0.08883693746347165,-0.2536528345996493
1746544126.0605698,0.9681919999999999,-0.189832,0.145424,-13.930000000000001,5.8100000000000005,9.590000000000002,-0.3611922852133255,-0.08883693746347165,-0.2536528345996493
1746544126.0654364,0.87352,-0.267912,0.133224,-14.770000000000001,5.74,7.98,-0.3611922852133255,-0.08883693746347165,-0.2536528345996493
1746544126.070303,0.88572,-0.241072,0.156648,-14.14,3.8500000000000005,6.720000000000001,-0.3611922852133255,-0.08883693746347165,-0.2536528345996493
1746544126.0751715,0.957456,-0.174216,0.135176,-15.47,4.83,6.370000000000001,-0.3611922852133255,-0.08883693746347165,-0.2536528345996493
1746544126.08004,0.975024,-0.135176,0.1464,-16.94,4.970000000000001,7.3500000000000005,-0.3611922852133255,-0.08883693746347165,-0.2536528345996493
1746544126.0849082,0.9272,-0.262056,0.078568,-17.430000000000003,4.2700000000000005,6.0200000000000005,-0.3611922852133255,-0.08883693746347165,-0.2536528345996493
1746544126.0897927,0.98332,-0.210816,0.08784,-16.94,5.11,3.43,-0.3611922852133255,-0.08883693746347165,-0.2536528345996493
1746544126.0953963,1.033096,-0.199104,0.122,-16.73,5.32,4.48,-0.3611922852133255,-0.08883693746347165,-0.2536528345996493
1746544126.0995252,1.077504,-0.195688,0.136152,-17.01,6.580000000000001,4.41,-0.3611922852133255,-0.08883693746347165,-0.2536528345996493
1746544126.1044066,1.071648,-0.180072,0.132736,-17.990000000000002,8.82,2.45,-0.3611922852133255,-0.08883693746347165,-0.2536528345996493
1746544126.1092656,1.0438319999999999,-0.22106399999999998,0.15420799999999998,-18.830000000000002,11.830000000000002,2.31,-0.3611922852133255,-0.08883693746347165,-0.2536528345996493
1746544126.1141245,1.0438319999999999,-0.22204,0.16348,-19.32,13.020000000000001,1.61,-0.3611922852133255,-0.08883693746347165,-0.2536528345996493
1746544126.118997,1.057008,-0.223016,0.174216,-20.160000000000004,14.420000000000002,0.49000000000000005,-0.3611922852133255,-0.08883693746347165,-0.2536528345996493
1746544126.1238654,1.018456,-0.203984,0.172752,-21.42,15.47,-0.7000000000000001,-0.3611922852133255,-0.08883693746347165,-0.2536528345996493
1746544126.1287308,0.945256,-0.195688,0.184952,-22.820000000000004,16.1,-1.2600000000000002,-0.3611922852133255,-0.08883693746347165,-0.2536528345996493
1746544126.1335998,0.9286639999999999,-0.199104,0.190808,-23.94,15.260000000000002,-2.0300000000000002,-0.3611922852133255,-0.08883693746347165,-0.2536528345996493
1746544126.1384685,0.91744,-0.166896,0.193736,-24.85,13.860000000000001,-3.0100000000000002,-0.3611922852133255,-0.08883693746347165,-0.2536528345996493
1746544126.1433406,0.913536,-0.135664,0.196176,-25.830000000000002,12.740000000000002,-3.5000000000000004,-0.3611922852133255,-0.08883693746347165,-0.2536528345996493
1746544126.1489196,0.906216,-0.125904,0.20252,-26.740000000000002,11.270000000000001,-3.7800000000000002,-0.3611922852133255,-0.08883693746347165,-0.2536528345996493
1746544126.1530883,0.897432,-0.111752,0.200568,-27.51,9.31,-4.760000000000001,-0.3611922852133255,-0.08883693746347165,-0.2536528345996493
1746544126.1579454,0.9125599999999999,-0.102968,0.207888,-28.070000000000004,6.930000000000001,-6.44,-0.3611922852133255,-0.08883693746347165,-0.2536528345996493
1746544126.1628137,0.934032,-0.087352,0.194712,-28.490000000000002,4.41,-7.630000000000001,-0.3611922852133255,-0.08883693746347165,-0.2536528345996493
1746544126.1676807,0.94916,-0.079544,0.188368,-28.840000000000003,2.66,-8.610000000000001,-0.3611922852133255,-0.08883693746347165,-0.2536528345996493
1746544126.1725469,0.9447679999999999,-0.086376,0.188368,-29.050000000000004,0.9800000000000001,-9.520000000000001,-0.3611922852133255,-0.08883693746347165,-0.2536528345996493
1746544126.1774197,0.92232,-0.092232,0.18348799999999998,-29.050000000000004,-0.6300000000000001,-11.97,-0.3611922852133255,-0.08883693746347165,-0.2536528345996493
1746544126.1823,0.9125599999999999,-0.089792,0.173728,-28.910000000000004,-4.550000000000001,-12.950000000000001,-0.3611922852133255,-0.08883693746347165,-0.2536528345996493
1746544126.187162,0.903288,-0.08588799999999999,0.16348,-28.700000000000003,-6.300000000000001,-13.23,-0.3611922852133255,-0.08883693746347165,-0.2536528345996493
1746544126.192044,0.904752,-0.08784,0.168848,-28.980000000000004,-7.840000000000001,-13.160000000000002,-0.3611922852133255,-0.08883693746347165,-0.2536528345996493
1746544126.1969056,0.913536,-0.095648,0.183976,-29.610000000000003,-9.24,-13.160000000000002,-0.3611922852133255,-0.08883693746347165,-0.2536528345996493
1746544126.2024844,0.9520879999999999,-0.113704,0.199592,-30.17,-10.010000000000002,-13.3,-0.3611922852133255,-0.08883693746347165,-0.2536528345996493
1746544126.2066538,0.955504,-0.116144,0.196176,-31.080000000000002,-10.64,-13.650000000000002,-0.3611922852133255,-0.08883693746347165,-0.2536528345996493
1746544126.2115223,0.9423279999999999,-0.111264,0.203008,-31.780000000000005,-11.270000000000001,-13.930000000000001,-0.3611922852133255,-0.08883693746347165,-0.2536528345996493
1746544126.2163982,0.935496,-0.1098,0.207888,-32.550000000000004,-11.830000000000002,-13.790000000000001,-0.3611922852133255,-0.08883693746347165,-0.2536528345996493
1746544126.2212512,0.945256,-0.114192,0.199592,-33.25,-12.740000000000002,-14.000000000000002,-0.3611922852133255,-0.08883693746347165,-0.2536528345996493
1746544126.2261174,0.9545279999999999,-0.114192,0.197152,-33.67,-13.440000000000001,-14.420000000000002,-0.3611922852133255,-0.08883693746347165,-0.2536528345996493
1746544126.2309883,0.95892,-0.11809599999999999,0.197152,-34.09,-13.930000000000001,-14.910000000000002,-0.3611922852133255,-0.08883693746347165,-0.2536528345996493
1746544126.2358556,0.960872,-0.120536,0.195688,-34.510000000000005,-14.700000000000001,-15.610000000000001,-0.3611922852133255,-0.08883693746347165,-0.2536528345996493
1746544126.2407231,0.96624,-0.125416,0.19763999999999998,-35.07,-15.750000000000002,-16.1,-0.3611922852133255,-0.08883693746347165,-0.2536528345996493
1746544126.2455914,0.98576,-0.150304,0.21228,-35.84,-16.87,-16.520000000000003,-0.36002337814143776,-0.06896551724137931,-0.26417299824663937
1746544126.250462,0.98576,-0.164456,0.21228,-36.75,-17.85,-16.87,-0.36002337814143776,-0.06896551724137931,-0.26417299824663937
1746544126.2560644,0.986736,-0.185928,0.2196,-38.010000000000005,-18.270000000000003,-16.520000000000003,-0.36002337814143776,-0.06896551724137931,-0.26417299824663937
1746544126.2602034,0.969168,-0.207888,0.21716,-39.2,-18.970000000000002,-15.750000000000002,-0.36002337814143776,-0.06896551724137931,-0.26417299824663937
1746544126.265067,0.940376,-0.21862399999999999,0.21862399999999999,-39.970000000000006,-19.6,-14.980000000000002,-0.36002337814143776,-0.06896551724137931,-0.26417299824663937
1746544126.2699323,0.9447679999999999,-0.2318,0.223504,-40.53,-19.950000000000003,-13.72,-0.36002337814143776,-0.06896551724137931,-0.26417299824663937
1746544126.2748015,0.990152,-0.253272,0.21228,-40.95,-20.790000000000003,-13.160000000000002,-0.36002337814143776,-0.06896551724137931,-0.26417299824663937
1746544126.279669,1.036024,-0.258152,0.20935199999999998,-41.02,-20.37,-13.580000000000002,-0.36002337814143776,-0.06896551724137931,-0.26417299824663937
1746544126.2845364,1.067256,-0.24644,0.22204,-40.95,-19.46,-14.63,-0.36002337814143776,-0.06896551724137931,-0.26417299824663937
1746544126.2894192,1.113616,-0.23863199999999998,0.216672,-40.95,-19.32,-15.680000000000001,-0.36002337814143776,-0.06896551724137931,-0.26417299824663937
1746544126.2944508,1.088728,-0.220576,0.203984,-41.02,-17.92,-15.680000000000001,-0.36002337814143776,-0.06896551724137931,-0.26417299824663937
1746544126.2993133,1.01992,-0.213744,0.215696,-41.510000000000005,-19.46,-14.980000000000002,-0.36002337814143776,-0.06896551724137931,-0.26417299824663937
1746544126.3041914,0.97112,-0.217648,0.215696,-41.650000000000006,-21.840000000000003,-14.63,-0.36002337814143776,-0.06896551724137931,-0.26417299824663937
1746544126.3098054,1.007232,-0.23619199999999999,0.18934399999999998,-41.720000000000006,-23.450000000000003,-14.840000000000002,-0.36002337814143776,-0.06896551724137931,-0.26417299824663937
1746544126.3139262,1.007232,-0.244976,0.18056,-41.86000000000001,-24.71,-15.400000000000002,-0.36002337814143776,-0.06896551724137931,-0.26417299824663937
1746544126.318793,1.035536,-0.249856,0.175192,-41.790000000000006,-25.410000000000004,-16.17,-0.36002337814143776,-0.06896551724137931,-0.26417299824663937
1746544126.3237028,1.01016,-0.249368,0.176168,-41.650000000000006,-25.55,-16.87,-0.36002337814143776,-0.06896551724137931,-0.26417299824663937
1746544126.328569,0.981368,-0.23668,0.18348799999999998,-41.650000000000006,-26.320000000000004,-17.360000000000003,-0.36002337814143776,-0.06896551724137931,-0.26417299824663937
1746544126.3334408,0.96624,-0.226432,0.198128,-41.790000000000006,-27.51,-17.57,-0.36002337814143776,-0.06896551724137931,-0.26417299824663937
1746544126.3383086,0.97356,-0.240096,0.216672,-42.07000000000001,-29.19,-17.5,-0.36002337814143776,-0.06896551724137931,-0.26417299824663937
1746544126.34318,1.028704,-0.253272,0.220088,-42.14,-31.080000000000002,-17.990000000000002,-0.36002337814143776,-0.06896551724137931,-0.26417299824663937
1746544126.348045,1.070184,-0.248392,0.21276799999999998,-42.49,-31.990000000000002,-18.830000000000002,-0.36002337814143776,-0.06896551724137931,-0.26417299824663937
1746544126.3529136,1.053104,-0.208864,0.225944,-42.980000000000004,-31.85,-18.830000000000002,-0.36002337814143776,-0.06896551724137931,-0.26417299824663937
1746544126.3577816,1.024312,-0.217648,0.2074,-43.75000000000001,-31.990000000000002,-17.57,-0.36002337814143776,-0.06896551724137931,-0.26417299824663937
1746544126.3692422,1.023824,-0.211792,0.223016,-45.150000000000006,-31.570000000000004,-16.03,-0.36002337814143776,-0.06896551724137931,-0.26417299824663937
1746544126.372122,1.099952,-0.250832,0.210816,-45.43000000000001,-30.590000000000003,-16.450000000000003,-0.36002337814143776,-0.06896551724137931,-0.26417299824663937
1746544126.376985,1.131672,-0.244976,0.20349599999999998,-45.43000000000001,-28.560000000000002,-17.220000000000002,-0.36002337814143776,-0.06896551724137931,-0.26417299824663937
1746544126.381851,1.115568,-0.234728,0.211304,-45.290000000000006,-25.410000000000004,-17.01,-0.36002337814143776,-0.06896551724137931,-0.26417299824663937
1746544126.3867195,1.094096,-0.233264,0.225944,-45.290000000000006,-23.03,-16.17,-0.36002337814143776,-0.06896551724137931,-0.26417299824663937
1746544126.3916283,1.095072,-0.23668,0.218136,-45.150000000000006,-21.42,-14.910000000000002,-0.36002337814143776,-0.06896551724137931,-0.26417299824663937
1746544126.396464,1.12972,-0.242536,0.223504,-45.010000000000005,-19.39,-13.3,-0.36002337814143776,-0.06896551724137931,-0.26417299824663937
1746544126.4013593,1.179008,-0.249368,0.22204,-44.730000000000004,-17.220000000000002,-11.690000000000001,-0.36002337814143776,-0.06896551724137931,-0.26417299824663937
1746544126.406201,1.203408,-0.260592,0.225456,-44.59,-14.490000000000002,-10.15,-0.36002337814143776,-0.06896551724137931,-0.26417299824663937
1746544126.4110732,1.190232,-0.28792,0.225944,-44.24,-11.340000000000002,-8.190000000000001,-0.36002337814143776,-0.06896551724137931,-0.26417299824663937
1746544126.4159577,1.155584,-0.288896,0.228872,-43.82000000000001,-6.370000000000001,-6.580000000000001,-0.36002337814143776,-0.06896551724137931,-0.26417299824663937
1746544126.4237547,1.13216,-0.301096,0.223016,-42.21,-4.0600000000000005,-4.550000000000001,-0.36002337814143776,-0.06896551724137931,-0.26417299824663937
1746544126.4266176,1.133624,-0.337696,0.213256,-41.160000000000004,-2.0300000000000002,-1.8200000000000003,-0.36002337814143776,-0.06896551724137931,-0.26417299824663937
1746544126.4314866,1.143384,-0.348432,0.21276799999999998,-39.620000000000005,-0.14,0.9100000000000001,-0.36002337814143776,-0.06896551724137931,-0.26417299824663937
1746544126.4363534,1.182912,-0.358192,0.20691199999999998,-38.080000000000005,1.1900000000000002,4.62,-0.3985973115137347,-0.030391583869082407,-0.24079485680888368
1746544126.4412222,1.195112,-0.349896,0.197152,-36.400000000000006,1.9600000000000002,7.910000000000001,-0.3985973115137347,-0.030391583869082407,-0.24079485680888368
1746544126.4460902,1.16876,-0.394792,0.230824,-35.56,4.69,11.200000000000001,-0.3985973115137347,-0.030391583869082407,-0.24079485680888368
1746544126.4509578,1.0931199999999999,-0.305488,0.27327999999999997,-35.14,6.090000000000001,12.46,-0.3985973115137347,-0.030391583869082407,-0.24079485680888368
1746544126.4558253,1.099952,-0.306464,0.284504,-35.21,4.970000000000001,17.080000000000002,-0.3985973115137347,-0.030391583869082407,-0.24079485680888368
1746544126.460692,1.074088,-0.323056,0.227896,-35.49,3.8500000000000005,19.880000000000003,-0.3985973115137347,-0.030391583869082407,-0.24079485680888368
1746544126.4655595,1.011136,-0.30012,0.215696,-36.190000000000005,5.32,18.830000000000002,-0.3985973115137347,-0.030391583869082407,-0.24079485680888368
1746544126.4704263,0.953064,-0.303536,0.22691999999999998,-36.61000000000001,6.16,17.01,-0.3985973115137347,-0.030391583869082407,-0.24079485680888368
1746544126.477701,0.8608319999999999,-0.21228,0.156648,-36.190000000000005,7.7700000000000005,11.410000000000002,-0.3985973115137347,-0.030391583869082407,-0.24079485680888368
1746544126.4805386,0.8608319999999999,-0.21228,0.156648,-36.190000000000005,7.7700000000000005,11.410000000000002,-0.3985973115137347,-0.030391583869082407,-0.24079485680888368
1746544126.4854114,0.833504,-0.175192,0.183976,-36.050000000000004,9.870000000000001,8.82,-0.3985973115137347,-0.030391583869082407,-0.24079485680888368
1746544126.4902775,0.798368,-0.144936,0.16591999999999998,-36.190000000000005,11.200000000000001,5.180000000000001,-0.3985973115137347,-0.030391583869082407,-0.24079485680888368
1746544126.4951453,0.766648,-0.12102399999999999,0.172264,-36.470000000000006,13.580000000000002,-0.42000000000000004,-0.3985973115137347,-0.030391583869082407,-0.24079485680888368
1746544126.500013,0.752984,-0.099552,0.147864,-36.260000000000005,14.840000000000002,-10.010000000000002,-0.3985973115137347,-0.030391583869082407,-0.24079485680888368
1746544126.5048807,0.73932,-0.10492,0.115656,-34.440000000000005,15.400000000000002,-14.280000000000001,-0.3985973115137347,-0.030391583869082407,-0.24079485680888368
1746544126.5097575,0.752984,-0.08588799999999999,0.127856,-33.6,14.840000000000002,-17.990000000000002,-0.3985973115137347,-0.030391583869082407,-0.24079485680888368
1746544126.5146255,0.744688,-0.018056,0.235704,-33.18,14.420000000000002,-20.650000000000002,-0.3985973115137347,-0.030391583869082407,-0.24079485680888368
1746544126.5194955,0.768112,0.00976,0.122,-33.11000000000001,13.020000000000001,-23.590000000000003,-0.3985973115137347,-0.030391583869082407,-0.24079485680888368
1746544126.524375,0.960872,0.038064,0.115656,-33.53,13.860000000000001,-27.44,-0.3985973115137347,-0.030391583869082407,-0.24079485680888368
1746544126.5307727,0.904752,-0.00488,0.135664,-33.88,15.680000000000001,-30.310000000000002,-0.3985973115137347,-0.030391583869082407,-0.24079485680888368
1746544126.5341005,0.953552,-0.07124799999999999,0.136152,-33.81,16.8,-31.430000000000003,-0.3985973115137347,-0.030391583869082407,-0.24079485680888368
1746544126.5389678,0.912072,-0.08003199999999999,0.152744,-33.53,18.200000000000003,-32.2,-0.3985973115137347,-0.030391583869082407,-0.24079485680888368
1746544126.5438354,0.938912,-0.155184,0.188856,-33.46,20.090000000000003,-31.080000000000002,-0.3985973115137347,-0.030391583869082407,-0.24079485680888368
1746544126.5487056,0.894992,-0.158112,0.21472,-33.67,20.3,-31.290000000000003,-0.3985973115137347,-0.030391583869082407,-0.24079485680888368
1746544126.5535727,0.94672,-0.173728,0.222528,-34.09,20.160000000000004,-29.890000000000004,-0.3985973115137347,-0.030391583869082407,-0.24079485680888368
1746544126.5584414,0.952576,-0.200568,0.197152,-34.86000000000001,20.860000000000003,-28.700000000000003,-0.3985973115137347,-0.030391583869082407,-0.24079485680888368
1746544126.563309,0.915,-0.188368,0.244,-35.84,23.1,-27.790000000000003,-0.3985973115137347,-0.030391583869082407,-0.24079485680888368
1746544126.5681758,0.923296,-0.144448,0.260104,-36.96,23.03,-26.110000000000003,-0.3985973115137347,-0.030391583869082407,-0.24079485680888368
1746544126.5730433,0.920368,-0.11809599999999999,0.251808,-38.50000000000001,23.240000000000002,-24.92,-0.3985973115137347,-0.030391583869082407,-0.24079485680888368
1746544126.577911,0.914024,-0.07417599999999999,0.254736,-39.970000000000006,24.570000000000004,-25.69,-0.3985973115137347,-0.030391583869082407,-0.24079485680888368
1746544126.5838416,0.913536,-0.0366,0.23912,-41.230000000000004,24.570000000000004,-27.020000000000003,-0.3985973115137347,-0.030391583869082407,-0.24079485680888368
1746544126.58765,0.9052399999999999,-0.040015999999999996,0.223016,-42.21,24.570000000000004,-28.070000000000004,-0.3985973115137347,-0.030391583869082407,-0.24079485680888368
1746544126.5925174,0.882304,-0.049776,0.196176,-42.63,23.87,-29.890000000000004,-0.3985973115137347,-0.030391583869082407,-0.24079485680888368
1746544126.5973835,0.871568,-0.05368,0.211304,-42.42,23.380000000000003,-29.960000000000004,-0.3985973115137347,-0.030391583869082407,-0.24079485680888368
1746544126.6022513,0.885232,-0.068808,0.203984,-41.86000000000001,21.28,-29.26,-0.3985973115137347,-0.030391583869082407,-0.24079485680888368
1746544126.6071203,0.899872,-0.093208,0.216184,-40.95,19.810000000000002,-28.28,-0.3985973115137347,-0.030391583869082407,-0.24079485680888368
1746544126.6119874,0.9125599999999999,-0.11516799999999999,0.21276799999999998,-39.970000000000006,18.340000000000003,-27.44,-0.3985973115137347,-0.030391583869082407,-0.24079485680888368
1746544126.6168578,0.899384,-0.133712,0.20935199999999998,-38.99,15.330000000000002,-25.130000000000003,-0.3985973115137347,-0.030391583869082407,-0.24079485680888368
1746544126.621731,0.86864,-0.14005599999999999,0.201544,-37.24,13.72,-23.590000000000003,-0.3985973115137347,-0.030391583869082407,-0.24079485680888368
1746544126.6265929,0.854,-0.144448,0.201544,-36.400000000000006,11.55,-22.400000000000002,-0.3985973115137347,-0.030391583869082407,-0.24079485680888368
1746544126.631466,0.844728,-0.144448,0.183976,-35.49,9.24,-21.700000000000003,-0.41613091759205145,-0.0058445353594389245,-0.24254821741671537
1746544126.6370482,0.852048,-0.122976,0.14884,-35.07,8.89,-21.07,-0.41613091759205145,-0.0058445353594389245,-0.24254821741671537
1746544126.641209,0.852048,-0.10248,0.159088,-34.93000000000001,7.490000000000001,-21.28,-0.41613091759205145,-0.0058445353594389245,-0.24254821741671537
1746544126.6460843,0.8583919999999999,-0.089304,0.16104,-34.720000000000006,5.11,-20.650000000000002,-0.41613091759205145,-0.0058445353594389245,-0.24254821741671537
1746544126.6509433,0.88572,-0.076616,0.17568,-35.07,3.5700000000000003,-19.32,-0.41613091759205145,-0.0058445353594389245,-0.24254821741671537
1746544126.6558182,0.925248,-0.067344,0.176656,-35.63,1.54,-17.080000000000002,-0.41613091759205145,-0.0058445353594389245,-0.24254821741671537
1746544126.6606932,0.940864,-0.066856,0.167872,-36.540000000000006,-0.14,-14.980000000000002,-0.41613091759205145,-0.0058445353594389245,-0.24254821741671537
1746544126.665556,0.943304,-0.067344,0.166896,-37.24,-1.54,-13.510000000000002,-0.41613091759205145,-0.0058445353594389245,-0.24254821741671537
1746544126.6704197,0.938912,-0.05124,0.16836,-37.800000000000004,-3.3600000000000003,-12.250000000000002,-0.41613091759205145,-0.0058445353594389245,-0.24254821741671537
1746544126.6752934,0.939888,-0.049776,0.158112,-38.290000000000006,-5.460000000000001,-10.430000000000001,-0.41613091759205145,-0.0058445353594389245,-0.24254821741671537
1746544126.6801615,0.943792,-0.004392,0.142984,-38.50000000000001,-7.3500000000000005,-8.82,-0.41613091759205145,-0.0058445353594389245,-0.24254821741671537
1746544126.6850312,0.894504,0.078568,0.086864,-38.36000000000001,-8.75,-7.5600000000000005,-0.41613091759205145,-0.0058445353594389245,-0.24254821741671537
1746544126.6906085,0.986248,-0.084912,0.16104,-37.31,-11.9,-4.41,-0.41613091759205145,-0.0058445353594389245,-0.24254821741671537
1746544126.6947694,1.031144,-0.092232,0.03172,-35.77,-15.890000000000002,-6.86,-0.41613091759205145,-0.0058445353594389245,-0.24254821741671537
1746544126.6996412,0.83936,-0.038551999999999996,0.108824,-34.720000000000006,-12.81,-10.920000000000002,-0.41613091759205145,-0.0058445353594389245,-0.24254821741671537
1746544126.7045069,0.913536,-0.020007999999999998,0.168848,-33.53,-18.130000000000003,-9.31,-0.41613091759205145,-0.0058445353594389245,-0.24254821741671537
1746544126.7094185,0.935008,-0.06539199999999999,0.044407999999999996,-33.040000000000006,-22.610000000000003,-6.65,-0.41613091759205145,-0.0058445353594389245,-0.24254821741671537
1746544126.7142444,0.879864,-0.07124799999999999,0.11956,-32.760000000000005,-20.650000000000002,-6.44,-0.41613091759205145,-0.0058445353594389245,-0.24254821741671537
1746544126.7191193,0.868152,-0.07808,0.140544,-32.2,-22.540000000000003,-6.16,-0.41613091759205145,-0.0058445353594389245,-0.24254821741671537
1746544126.7239826,0.947696,-0.105408,0.061488,-31.710000000000004,-26.180000000000003,-5.670000000000001,-0.41613091759205145,-0.0058445353594389245,-0.24254821741671537
1746544126.7288544,0.9882,-0.07564,0.034648,-31.290000000000003,-24.64,-5.32,-0.41613091759205145,-0.0058445353594389245,-0.24254821741671537
1746544126.7337234,0.9520879999999999,-0.072712,0.072712,-30.870000000000005,-24.71,-1.1900000000000002,-0.41613091759205145,-0.0058445353594389245,-0.24254821741671537
1746544126.7385952,0.970144,-0.105408,0.02684,-29.750000000000004,-25.130000000000003,0.28,-0.41613091759205145,-0.0058445353594389245,-0.24254821741671537
1746544126.7441728,1.018944,-0.086864,0.034159999999999996,-29.400000000000002,-26.110000000000003,2.66,-0.41613091759205145,-0.0058445353594389245,-0.24254821741671537
1746544126.7483358,1.018944,-0.086864,0.034159999999999996,-29.26,-27.720000000000002,4.48,-0.41613091759205145,-0.0058445353594389245,-0.24254821741671537
1746544126.7532017,1.009184,-0.06588,0.023912,-29.120000000000005,-30.590000000000003,5.670000000000001,-0.41613091759205145,-0.0058445353594389245,-0.24254821741671537
1746544126.758068,1.070184,-0.086376,0.050752,-29.19,-30.520000000000003,5.390000000000001,-0.41613091759205145,-0.0058445353594389245,-0.24254821741671537
1746544126.7629426,1.0126,-0.03904,0.095648,-29.26,-32.2,5.95,-0.41613091759205145,-0.0058445353594389245,-0.24254821741671537
1746544126.7678065,1.030656,-0.05124,0.081984,-29.610000000000003,-35.07,7.420000000000001,-0.41613091759205145,-0.0058445353594389245,-0.24254821741671537
1746544126.7726786,1.0248,-0.019032,0.10492,-30.17,-35.56,7.280000000000001,-0.41613091759205145,-0.0058445353594389245,-0.24254821741671537
1746544126.7775428,0.974536,0.04392,0.153232,-31.220000000000002,-35.63,6.580000000000001,-0.41613091759205145,-0.0058445353594389245,-0.24254821741671537
1746544126.7824159,1.007232,0.072712,0.16104,-32.550000000000004,-37.940000000000005,6.580000000000001,-0.41613091759205145,-0.0058445353594389245,-0.24254821741671537
1746544126.7872837,1.065792,0.092232,0.15616,-34.230000000000004,-38.92,5.6000000000000005,-0.41613091759205145,-0.0058445353594389245,-0.24254821741671537
1746544126.792155,1.084824,0.11809599999999999,0.180072,-36.050000000000004,-37.38,3.3600000000000003,-0.41613091759205145,-0.0058445353594389245,-0.24254821741671537
1746544126.7977407,1.121912,0.096624,0.192272,-37.730000000000004,-36.330000000000005,1.7500000000000002,-0.41613091759205145,-0.0058445353594389245,-0.24254821741671537
1746544126.8018901,1.170224,0.000976,0.184464,-38.57,-34.790000000000006,0.0,-0.41613091759205145,-0.0058445353594389245,-0.24254821741671537
1746544126.8067641,1.230736,-0.118584,0.213744,-37.660000000000004,-32.13,-2.45,-0.41613091759205145,-0.0058445353594389245,-0.24254821741671537
1746544126.8116317,1.313696,-0.265472,0.23424,-34.580000000000005,-27.860000000000003,-3.7800000000000002,-0.41613091759205145,-0.0058445353594389245,-0.24254821741671537
1746544126.8165028,1.330776,-0.379176,0.27327999999999997,-29.19,-22.12,-5.11,-0.41613091759205145,-0.0058445353594389245,-0.24254821741671537
1746544126.8213704,1.2932,-0.443592,0.230824,-22.12,-17.71,-6.090000000000001,-0.4570426651081239,0.017533606078316773,-0.2033898305084746
1746544126.8262382,1.24684,-0.342088,0.21276799999999998,-14.700000000000001,-13.440000000000001,-6.790000000000001,-0.4570426651081239,0.017533606078316773,-0.2033898305084746
1746544126.8311136,1.21024,-0.159576,0.181536,-10.57,-8.89,-4.83,-0.4570426651081239,0.017533606078316773,-0.2033898305084746
1746544126.835979,1.192672,-0.020007999999999998,0.237168,-8.75,-4.2,-2.1700000000000004,-0.4570426651081239,0.017533606078316773,-0.2033898305084746
1746544126.8408527,1.424472,-0.029768,0.182512,-8.4,-2.5200000000000005,0.6300000000000001,-0.4570426651081239,0.017533606078316773,-0.2033898305084746
1746544126.8457198,1.399584,0.0732,0.115656,-8.4,3.9200000000000004,-4.970000000000001,-0.4570426651081239,0.017533606078316773,-0.2033898305084746
1746544126.8513,1.211216,0.052216,0.040015999999999996,-7.910000000000001,15.190000000000001,-7.280000000000001,-0.4570426651081239,0.017533606078316773,-0.2033898305084746
1746544126.8554587,0.992592,0.047335999999999996,0.040015999999999996,-6.510000000000001,16.1,-7.910000000000001,-0.4570426651081239,0.017533606078316773,-0.2033898305084746
1746544126.8603275,0.948184,0.047335999999999996,0.09759999999999999,-5.32,13.72,-5.670000000000001,-0.4570426651081239,0.017533606078316773,-0.2033898305084746
1746544126.8652043,1.0492,0.038551999999999996,0.08588799999999999,-4.2,14.490000000000002,-3.7100000000000004,-0.4570426651081239,0.017533606078316773,-0.2033898305084746
1746544126.8700705,1.170224,0.12102399999999999,0.121512,-3.5700000000000003,16.17,-4.340000000000001,-0.4570426651081239,0.017533606078316773,-0.2033898305084746
1746544126.8749368,1.22488,-0.012688,0.11956,-3.43,18.830000000000002,-4.41,-0.4570426651081239,0.017533606078316773,-0.2033898305084746
1746544126.8798063,1.151192,0.020984,0.162504,-3.8500000000000005,20.650000000000002,-5.180000000000001,-0.4570426651081239,0.017533606078316773,-0.2033898305084746
1746544126.884676,1.114592,0.018543999999999998,0.158112,-4.69,20.51,-4.550000000000001,-0.4570426651081239,0.017533606078316773,-0.2033898305084746
1746544126.8895426,1.0931199999999999,0.027327999999999998,0.177144,-5.6000000000000005,19.810000000000002,-3.3600000000000003,-0.4570426651081239,0.017533606078316773,-0.2033898305084746
1746544126.8944106,1.10776,0.021471999999999998,0.16006399999999998,-6.65,18.48,-1.4000000000000001,-0.4570426651081239,0.017533606078316773,-0.2033898305084746
1746544126.8992798,1.099464,0.013663999999999999,0.137616,-7.700000000000001,18.41,0.8400000000000001,-0.4570426651081239,0.017533606078316773,-0.2033898305084746
1746544126.904881,1.092144,0.01464,0.14005599999999999,-8.610000000000001,19.46,2.5900000000000003,-0.4570426651081239,0.017533606078316773,-0.2033898305084746
1746544126.9090242,1.065304,0.032208,0.127368,-9.590000000000002,19.810000000000002,4.130000000000001,-0.4570426651081239,0.017533606078316773,-0.2033898305084746
1746544126.9138887,0.996008,0.083448,0.11712,-10.99,19.880000000000003,5.53,-0.4570426651081239,0.017533606078316773,-0.2033898305084746
1746544126.9187624,1.018456,0.010735999999999999,0.181048,-12.250000000000002,19.32,8.05,-0.4570426651081239,0.017533606078316773,-0.2033898305084746
1746544126.9236267,1.0906799999999999,0.011224,0.149328,-12.88,16.240000000000002,8.540000000000001,-0.4570426651081239,0.017533606078316773,-0.2033898305084746
1746544126.928494,1.089704,0.02928,0.164944,-13.23,17.01,8.89,-0.4570426651081239,0.017533606078316773,-0.2033898305084746
1746544126.9333596,1.0291919999999999,0.07076,0.20496,-13.72,16.520000000000003,9.940000000000001,-0.4570426651081239,0.017533606078316773,-0.2033898305084746
1746544126.9382267,1.0004,0.062464,0.23033599999999999,-14.350000000000001,14.000000000000002,11.48,-0.4570426651081239,0.017533606078316773,-0.2033898305084746
1746544126.9430964,1.04432,0.06588,0.216672,-15.05,10.500000000000002,11.760000000000002,-0.4570426651081239,0.017533606078316773,-0.2033898305084746
1746544126.9479754,1.081408,0.069784,0.222528,-15.400000000000002,8.75,11.620000000000001,-0.4570426651081239,0.017533606078316773,-0.2033898305084746
1746544126.952843,1.101416,0.09272,0.2074,-15.750000000000002,6.44,11.13,-0.4570426651081239,0.017533606078316773,-0.2033898305084746
1746544126.958419,1.1468,0.111752,0.172752,-17.290000000000003,3.9200000000000004,10.64,-0.4570426651081239,0.017533606078316773,-0.2033898305084746
1746544126.962579,1.15412,0.111264,0.13176,-17.290000000000003,3.9200000000000004,9.66,-0.4570426651081239,0.017533606078316773,-0.2033898305084746
1746544126.9674525,0.940376,0.093208,0.129808,-18.130000000000003,1.54,8.47,-0.4570426651081239,0.017533606078316773,-0.2033898305084746
1746544126.972321,0.788608,0.113216,0.21716,-19.810000000000002,-8.680000000000001,9.8,-0.4570426651081239,0.017533606078316773,-0.2033898305084746
1746544126.9771883,0.821792,0.10736,0.160552,-20.3,-15.190000000000001,11.13,-0.4570426651081239,0.017533606078316773,-0.2033898305084746
1746544126.9820533,0.916464,0.091256,0.181048,-21.28,-15.120000000000001,12.39,-0.4570426651081239,0.017533606078316773,-0.2033898305084746
1746544126.9869218,0.887184,0.081496,0.15616,-22.400000000000002,-21.35,13.23,-0.4570426651081239,0.017533606078316773,-0.2033898305084746
1746544126.9917905,0.982344,-0.012199999999999999,0.103944,-23.310000000000002,-27.930000000000003,13.020000000000001,-0.4570426651081239,0.017533606078316773,-0.2033898305084746
1746544126.9966629,1.056032,-0.028304,0.134688,-23.87,-30.590000000000003,10.850000000000001,-0.4570426651081239,0.017533606078316773,-0.2033898305084746
1746544127.001529,1.118984,-0.01952,0.10638399999999999,-24.220000000000002,-33.25,10.22,-0.4570426651081239,0.017533606078316773,-0.2033898305084746
1746544127.006399,1.065792,-0.011712,0.12688,-24.64,-32.900000000000006,10.850000000000001,-0.4570426651081239,0.017533606078316773,-0.2033898305084746
1746544127.0119762,0.9730719999999999,0.000976,0.17568,-24.990000000000002,-34.300000000000004,12.46,-0.4570426651081239,0.017533606078316773,-0.2033898305084746
1746544127.0161352,1.008696,-0.020007999999999998,0.168848,-25.340000000000003,-38.50000000000001,14.21,-0.45587375803623614,0.046756282875511396,-0.19579193454120397
1746544127.021013,1.112152,-0.030744,0.14835199999999998,-25.200000000000003,-41.160000000000004,15.120000000000001,-0.45587375803623614,0.046756282875511396,-0.19579193454120397
1746544127.0258758,1.13216,-0.032208,0.145912,-25.410000000000004,-40.88,15.330000000000002,-0.45587375803623614,0.046756282875511396,-0.19579193454120397
1746544127.0307438,1.109224,-0.045384,0.168848,-25.340000000000003,-40.46,15.750000000000002,-0.45587375803623614,0.046756282875511396,-0.19579193454120397
1746544127.0356133,1.072136,-0.05368,0.179096,-25.060000000000002,-41.160000000000004,15.96,-0.45587375803623614,0.046756282875511396,-0.19579193454120397
1746544127.040485,1.061888,-0.070272,0.176168,-24.500000000000004,-41.86000000000001,16.1,-0.45587375803623614,0.046756282875511396,-0.19579193454120397
1746544127.0453515,1.054568,-0.0732,0.164456,-23.94,-42.28,15.96,-0.45587375803623614,0.046756282875511396,-0.19579193454120397
1746544127.0502205,1.036024,-0.086864,0.167872,-23.17,-42.21,15.96,-0.45587375803623614,0.046756282875511396,-0.19579193454120397
1746544127.0551193,1.028704,-0.10345599999999999,0.16836,-22.05,-42.42,15.890000000000002,-0.45587375803623614,0.046756282875511396,-0.19579193454120397
1746544127.0599597,1.016992,-0.12102399999999999,0.165432,-20.580000000000002,-42.49,15.750000000000002,-0.45587375803623614,0.046756282875511396,-0.19579193454120397
1746544127.0655448,1.009672,-0.133712,0.163968,-18.76,-42.56,15.96,-0.45587375803623614,0.046756282875511396,-0.19579193454120397
1746544127.0697253,1.013576,-0.150304,0.155672,-16.73,-42.42,15.96,-0.45587375803623614,0.046756282875511396,-0.19579193454120397
1746544127.074571,1.001376,-0.160552,0.142008,-14.420000000000002,-42.07000000000001,16.1,-0.45587375803623614,0.046756282875511396,-0.19579193454120397
1746544127.079437,0.957456,-0.162992,0.134688,-11.9,-41.300000000000004,17.78,-0.45587375803623614,0.046756282875511396,-0.19579193454120397
1746544127.0843036,0.916464,-0.16836,0.12395199999999999,-9.590000000000002,-41.510000000000005,18.69,-0.45587375803623614,0.046756282875511396,-0.19579193454120397
1746544127.0891721,0.904264,-0.17812,0.11468,-5.8100000000000005,-41.790000000000006,18.900000000000002,-0.45587375803623614,0.046756282875511396,-0.19579193454120397
1746544127.094041,0.934032,-0.185928,0.098088,-4.2,-40.46,18.130000000000003,-0.45587375803623614,0.046756282875511396,-0.19579193454120397
1746544127.0989096,0.9730719999999999,-0.185928,0.069296,-2.87,-37.940000000000005,17.080000000000002,-0.45587375803623614,0.046756282875511396,-0.19579193454120397
1746544127.1037786,0.992592,-0.18348799999999998,0.025863999999999998,-1.61,-34.510000000000005,15.260000000000002,-0.45587375803623614,0.046756282875511396,-0.19579193454120397
1746544127.1086729,0.955992,-0.157624,0.036112,-0.35000000000000003,-30.17,13.3,-0.45587375803623614,0.046756282875511396,-0.19579193454120397
1746544127.1135504,0.908168,-0.15420799999999998,0.008296,0.7000000000000001,-27.230000000000004,12.81,-0.45587375803623614,0.046756282875511396,-0.19579193454120397
1746544127.1191278,0.894016,-0.155184,0.017568,1.4700000000000002,-23.8,12.110000000000001,-0.45587375803623614,0.046756282875511396,-0.19579193454120397
1746544127.1232605,0.859368,-0.122488,0.028304,2.31,-21.630000000000003,12.250000000000002,-0.45587375803623614,0.046756282875511396,-0.19579193454120397
1746544127.1281278,0.842288,-0.13663999999999998,0.015127999999999999,2.87,-20.580000000000002,13.370000000000001,-0.45587375803623614,0.046756282875511396,-0.19579193454120397
1746544127.1330526,0.867664,-0.142984,0.023424,3.43,-18.970000000000002,13.930000000000001,-0.45587375803623614,0.046756282875511396,-0.19579193454120397
1746544127.1379197,0.861808,-0.093208,0.024888,3.7800000000000002,-17.5,13.370000000000001,-0.45587375803623614,0.046756282875511396,-0.19579193454120397
1746544127.1427877,0.935008,-0.12102399999999999,0.00488,4.130000000000001,-16.1,14.910000000000002,-0.45587375803623614,0.046756282875511396,-0.19579193454120397
1746544127.147659,0.8906,-0.110776,-0.004392,4.48,-12.950000000000001,14.700000000000001,-0.45587375803623614,0.046756282875511396,-0.19579193454120397
1746544127.1525667,0.8784,-0.11468,-0.007808,5.250000000000001,-9.8,14.420000000000002,-0.45587375803623614,0.046756282875511396,-0.19579193454120397
1746544127.1574054,0.850584,-0.087352,-0.002928,5.670000000000001,-7.210000000000001,13.860000000000001,-0.45587375803623614,0.046756282875511396,-0.19579193454120397
1746544127.16227,0.809592,-0.084912,-0.000488,6.0200000000000005,-5.040000000000001,14.14,-0.45587375803623614,0.046756282875511396,-0.19579193454120397
1746544127.167141,0.793,-0.093696,-0.00732,6.300000000000001,-3.6400000000000006,14.21,-0.45587375803623614,0.046756282875511396,-0.19579193454120397
1746544127.1727197,0.792024,-0.08588799999999999,-0.0034159999999999998,6.510000000000001,-2.5900000000000003,14.070000000000002,-0.45587375803623614,0.046756282875511396,-0.19579193454120397
1746544127.1768801,0.8174,-0.07808,-0.008784,6.720000000000001,-1.54,14.490000000000002,-0.45587375803623614,0.046756282875511396,-0.19579193454120397
1746544127.1817417,0.826672,-0.071736,-0.004392,6.790000000000001,-0.42000000000000004,14.350000000000001,-0.45587375803623614,0.046756282875511396,-0.19579193454120397
1746544127.1866078,0.796904,-0.073688,0.0034159999999999998,6.44,0.77,14.420000000000002,-0.45587375803623614,0.046756282875511396,-0.19579193454120397
1746544127.1914804,0.773968,-0.071736,0.003904,6.16,1.54,14.280000000000001,-0.45587375803623614,0.046756282875511396,-0.19579193454120397
1746544127.196345,0.793,-0.050752,0.011224,5.8100000000000005,2.1700000000000004,13.510000000000002,-0.45587375803623614,0.046756282875511396,-0.19579193454120397
1746544127.2012136,0.803248,-0.049288,-0.001464,5.32,4.550000000000001,13.860000000000001,-0.45587375803623614,0.046756282875511396,-0.19579193454120397
1746544127.206087,0.780312,-0.050752,-0.00732,4.340000000000001,5.8100000000000005,13.370000000000001,-0.46756282875511396,0.07597895967270601,-0.15195791934541203
1746544127.2109528,0.75884,-0.06588,-0.008296,3.8500000000000005,6.23,12.88,-0.46756282875511396,0.07597895967270601,-0.15195791934541203
1746544127.2158186,0.74664,-0.061488,0.008784,3.5000000000000004,6.930000000000001,13.3,-0.46756282875511396,0.07597895967270601,-0.15195791934541203
1746544127.2206883,0.761768,-0.079544,0.013663999999999999,3.1500000000000004,7.280000000000001,13.370000000000001,-0.46756282875511396,0.07597895967270601,-0.15195791934541203
1746544127.2262635,0.779824,-0.0732,-0.004392,2.7300000000000004,8.190000000000001,13.3,-0.46756282875511396,0.07597895967270601,-0.15195791934541203
1746544127.2304397,0.722728,-0.0366,0.0068319999999999995,2.1,8.89,13.580000000000002,-0.46756282875511396,0.07597895967270601,-0.15195791934541203
1746544127.2353015,0.671,-0.00488,-0.005856,1.12,7.000000000000001,12.950000000000001,-0.46756282875511396,0.07597895967270601,-0.15195791934541203
1746544127.2401726,0.713456,-0.010248,-0.011224,-0.07,5.53,12.040000000000001,-0.46756282875511396,0.07597895967270601,-0.15195791934541203
1746544127.2450387,0.772992,-0.010735999999999999,-0.021471999999999998,-1.2600000000000002,4.83,11.97,-0.46756282875511396,0.07597895967270601,-0.15195791934541203
1746544127.2499075,0.833504,-0.016592,-0.016104,-2.1700000000000004,4.83,11.760000000000002,-0.46756282875511396,0.07597895967270601,-0.15195791934541203
1746544127.2547786,0.8818159999999999,-0.020496,-0.013176,-2.9400000000000004,5.8100000000000005,10.500000000000002,-0.46756282875511396,0.07597895967270601,-0.15195791934541203
1746544127.2596462,0.933056,-0.011224,-0.025376,-3.5700000000000003,7.5600000000000005,8.260000000000002,-0.46756282875511396,0.07597895967270601,-0.15195791934541203
1746544127.2645195,0.8866959999999999,0.001464,-0.018543999999999998,-4.970000000000001,9.450000000000001,6.65,-0.46756282875511396,0.07597895967270601,-0.15195791934541203
1746544127.2693846,0.826672,-0.012199999999999999,-0.002928,-6.44,10.22,6.090000000000001,-0.46756282875511396,0.07597895967270601,-0.15195791934541203
1746544127.2742538,0.82472,-0.0053679999999999995,-0.009271999999999999,-7.7700000000000005,9.100000000000001,5.11,-0.46756282875511396,0.07597895967270601,-0.15195791934541203
1746544127.2798567,0.862296,0.000976,-0.026352,-9.030000000000001,8.190000000000001,5.390000000000001,-0.46756282875511396,0.07597895967270601,-0.15195791934541203
1746544127.2839956,0.881328,-0.00732,-0.034159999999999996,-10.290000000000001,8.260000000000002,6.580000000000001,-0.46756282875511396,0.07597895967270601,-0.15195791934541203
1746544127.2888618,0.8954799999999999,-0.014152,-0.027816,-11.620000000000001,8.82,6.44,-0.46756282875511396,0.07597895967270601,-0.15195791934541203
1746544127.2937288,0.94184,-0.008296,-0.010735999999999999,-13.160000000000002,9.590000000000002,5.460000000000001,-0.46756282875511396,0.07597895967270601,-0.15195791934541203
1746544127.2985964,1.010648,-0.00244,-0.02928,-14.490000000000002,10.57,3.9200000000000004,-0.46756282875511396,0.07597895967270601,-0.15195791934541203
1746544127.303468,1.02724,-0.022935999999999998,-0.040992,-15.750000000000002,13.3,2.66,-0.46756282875511396,0.07597895967270601,-0.15195791934541203
1746544127.3083322,0.991128,-0.024399999999999998,-0.019032,-16.8,16.73,1.12,-0.46756282875511396,0.07597895967270601,-0.15195791934541203
1746544127.313199,0.930616,-0.034648,0.00488,-17.57,18.200000000000003,-0.9100000000000001,-0.46756282875511396,0.07597895967270601,-0.15195791934541203
1746544127.3180673,0.88084,-0.049288,0.03172,-17.990000000000002,15.820000000000002,-1.7500000000000002,-0.46756282875511396,0.07597895967270601,-0.15195791934541203
1746544127.3229349,0.89304,-0.048799999999999996,0.031232,-17.92,14.000000000000002,-1.9600000000000002,-0.46756282875511396,0.07597895967270601,-0.15195791934541203
1746544127.3278036,0.894504,-0.050752,0.024399999999999998,-17.64,12.530000000000001,-1.61,-0.46756282875511396,0.07597895967270601,-0.15195791934541203
1746544127.3333936,0.902312,-0.067832,0.049288,-17.57,9.73,-1.6800000000000002,-0.46756282875511396,0.07597895967270601,-0.15195791934541203
1746544127.3375385,0.902312,-0.067832,0.050752,-17.430000000000003,7.910000000000001,-2.5900000000000003,-0.46756282875511396,0.07597895967270601,-0.15195791934541203
1746544127.3424077,0.9516,-0.039528,0.02928,-17.57,6.090000000000001,-3.7800000000000002,-0.46756282875511396,0.07597895967270601,-0.15195791934541203
1746544127.3472877,0.9594079999999999,-0.091256,0.04636,-17.64,4.760000000000001,-5.040000000000001,-0.46756282875511396,0.07597895967270601,-0.15195791934541203
1746544127.352174,1.040904,-0.140544,0.059047999999999996,-17.430000000000003,1.8900000000000001,-8.05,-0.46756282875511396,0.07597895967270601,-0.15195791934541203
1746544127.3570213,1.155584,-0.169824,0.02928,-16.8,0.0,-12.180000000000001,-0.46756282875511396,0.07597895967270601,-0.15195791934541203
1746544127.361889,1.169248,-0.144448,0.016592,-16.310000000000002,1.05,-15.890000000000002,-0.46756282875511396,0.07597895967270601,-0.15195791934541203
1746544127.3667622,1.075064,-0.133224,0.047335999999999996,-16.03,2.5200000000000005,-16.520000000000003,-0.46756282875511396,0.07597895967270601,-0.15195791934541203
1746544127.3716273,0.955504,-0.132736,0.064416,-15.680000000000001,1.12,-14.910000000000002,-0.46756282875511396,0.07597895967270601,-0.15195791934541203
1746544127.376496,0.870592,-0.134688,0.089792,-15.05,-1.9600000000000002,-12.46,-0.46756282875511396,0.07597895967270601,-0.15195791934541203
1746544127.3813639,0.882304,-0.136152,0.098576,-14.070000000000002,-5.670000000000001,-10.290000000000001,-0.46756282875511396,0.07597895967270601,-0.15195791934541203
1746544127.392851,0.967704,-0.138592,0.105896,-11.830000000000002,-9.100000000000001,-8.89,-0.46756282875511396,0.07597895967270601,-0.15195791934541203
1746544127.395711,1.11508,-0.171288,0.12395199999999999,-10.850000000000001,-8.540000000000001,-9.520000000000001,-0.46756282875511396,0.07597895967270601,-0.15195791934541203
1746544127.4005737,1.1399679999999999,-0.182512,0.132248,-10.15,-8.05,-11.200000000000001,-0.4652250146113384,0.07364114552893045,-0.14377556984219755
1746544127.40544,1.19316,-0.232288,0.14396,-9.31,-7.490000000000001,-12.110000000000001,-0.4652250146113384,0.07364114552893045,-0.14377556984219755
1746544127.410311,1.255624,-0.252784,0.157136,-8.680000000000001,-5.390000000000001,-12.250000000000002,-0.4652250146113384,0.07364114552893045,-0.14377556984219755
1746544127.4151762,1.222928,-0.225456,0.1464,-8.47,-3.99,-12.88,-0.4652250146113384,0.07364114552893045,-0.14377556984219755
1746544127.4200556,1.2780719999999999,-0.243024,0.174216,-7.98,-2.3800000000000003,-13.020000000000001,-0.4652250146113384,0.07364114552893045,-0.14377556984219755
1746544127.4249203,1.345416,-0.22447999999999999,0.108336,-7.5600000000000005,-1.2600000000000002,-13.650000000000002,-0.4652250146113384,0.07364114552893045,-0.14377556984219755
1746544127.4297864,1.2780719999999999,-0.225944,0.149328,-7.280000000000001,4.2,-12.740000000000002,-0.4652250146113384,0.07364114552893045,-0.14377556984219755
1746544127.4346583,1.222928,-0.23277599999999998,0.16104,-6.65,6.44,-11.760000000000002,-0.4652250146113384,0.07364114552893045,-0.14377556984219755
1746544127.439525,1.249768,-0.243512,0.135664,-6.0200000000000005,11.270000000000001,-11.200000000000001,-0.4652250146113384,0.07364114552893045,-0.14377556984219755
1746544127.4473476,1.270264,-0.237168,0.16006399999999998,-4.83,14.000000000000002,-10.430000000000001,-0.4652250146113384,0.07364114552893045,-0.14377556984219755
1746544127.4501913,1.338096,-0.24644,0.161528,-4.340000000000001,17.5,-9.38,-0.4652250146113384,0.07364114552893045,-0.14377556984219755
1746544127.4550593,1.350296,-0.255712,0.178608,-3.7800000000000002,21.28,-8.82,-0.4652250146113384,0.07364114552893045,-0.14377556984219755
1746544127.4599276,1.369816,-0.264496,0.17812,-3.1500000000000004,24.92,-7.7700000000000005,-0.4652250146113384,0.07364114552893045,-0.14377556984219755
1746544127.4647949,1.361032,-0.32256799999999997,0.201544,-2.5900000000000003,28.560000000000002,-6.580000000000001,-0.4652250146113384,0.07364114552893045,-0.14377556984219755
1746544127.46966,1.37372,-0.27572,0.188856,-2.0300000000000002,30.730000000000004,-5.11,-0.4652250146113384,0.07364114552893045,-0.14377556984219755
1746544127.4745283,1.336632,-0.259616,0.170312,-1.8200000000000003,32.620000000000005,-3.43,-0.4652250146113384,0.07364114552893045,-0.14377556984219755
1746544127.4794064,1.291736,-0.185928,0.181536,-1.8900000000000001,33.74,-4.2700000000000005,-0.4652250146113384,0.07364114552893045,-0.14377556984219755
1746544127.484276,1.2312239999999999,-0.14005599999999999,0.130296,-2.66,32.760000000000005,-4.2,-0.4652250146113384,0.07364114552893045,-0.14377556984219755
1746544127.4891424,1.155096,-0.122,0.161528,-3.7800000000000002,32.06,-3.0100000000000002,-0.4652250146113384,0.07364114552893045,-0.14377556984219755
1746544127.4940114,1.140456,-0.14005599999999999,0.152744,-4.9,28.28,-3.1500000000000004,-0.4652250146113384,0.07364114552893045,-0.14377556984219755
1746544127.5013058,1.126792,-0.116144,0.13908,-6.65,22.12,-4.0600000000000005,-0.4652250146113384,0.07364114552893045,-0.14377556984219755
1746544127.5041714,1.126792,-0.116144,0.13908,-6.65,22.12,-4.0600000000000005,-0.4652250146113384,0.07364114552893045,-0.14377556984219755
1746544127.5090377,1.028216,-0.113216,0.185928,-7.98,19.250000000000004,-4.2700000000000005,-0.4652250146113384,0.07364114552893045,-0.14377556984219755
1746544127.5139046,0.97844,-0.124928,0.211304,-9.24,13.370000000000001,-3.7100000000000004,-0.4652250146113384,0.07364114552893045,-0.14377556984219755
1746544127.5187743,0.994544,-0.125416,0.193248,-10.71,6.65,-3.99,-0.4652250146113384,0.07364114552893045,-0.14377556984219755
1746544127.5236416,1.043344,-0.137616,0.181048,-11.97,-16.450000000000003,-4.69,-0.4652250146113384,0.07364114552893045,-0.14377556984219755
1746544127.528508,1.06384,-0.15128,0.18544,-14.000000000000002,-5.460000000000001,-5.250000000000001,-0.4652250146113384,0.07364114552893045,-0.14377556984219755
1746544127.533376,1.049688,-0.2074,0.166408,-14.63,-7.5600000000000005,-5.670000000000001,-0.4652250146113384,0.07364114552893045,-0.14377556984219755
1746544127.5382435,1.03456,-0.200568,0.177144,-15.330000000000002,-10.15,-5.53,-0.4652250146113384,0.07364114552893045,-0.14377556984219755
1746544127.5431123,1.039928,-0.187392,0.186416,-16.17,-12.040000000000001,-5.670000000000001,-0.4652250146113384,0.07364114552893045,-0.14377556984219755
1746544127.547982,1.054568,-0.190808,0.194712,-16.87,-13.160000000000002,-6.580000000000001,-0.4652250146113384,0.07364114552893045,-0.14377556984219755
1746544127.5544014,1.1350879999999999,-0.207888,0.199592,-17.57,-12.950000000000001,-7.700000000000001,-0.4652250146113384,0.07364114552893045,-0.14377556984219755
1746544127.557724,1.1712,-0.205936,0.189832,-18.130000000000003,-12.250000000000002,-9.870000000000001,-0.4652250146113384,0.07364114552893045,-0.14377556984219755
1746544127.5625908,1.136064,-0.207888,0.18056,-18.55,-10.500000000000002,-11.620000000000001,-0.4652250146113384,0.07364114552893045,-0.14377556984219755
1746544127.5674732,1.098488,-0.207888,0.188856,-18.76,-8.47,-11.06,-0.4652250146113384,0.07364114552893045,-0.14377556984219755
1746544127.5723288,1.069208,-0.247416,0.175192,-18.62,-7.910000000000001,-9.870000000000001,-0.4652250146113384,0.07364114552893045,-0.14377556984219755
1746544127.5771976,1.081896,-0.245464,0.179584,-18.340000000000003,-6.930000000000001,-9.8,-0.4652250146113384,0.07364114552893045,-0.14377556984219755
1746544127.582081,1.1346,-0.241072,0.16591999999999998,-18.130000000000003,-5.880000000000001,-9.8,-0.4652250146113384,0.07364114552893045,-0.14377556984219755
1746544127.586941,1.1697359999999999,-0.23863199999999998,0.14005599999999999,-18.060000000000002,-3.6400000000000006,-9.870000000000001,-0.4652250146113384,0.07364114552893045,-0.14377556984219755
1746544127.5918086,1.136552,-0.231312,0.132248,-17.78,0.14,-10.430000000000001,-0.45938047925189945,0.06662770309760374,-0.146697837521917
1746544127.596676,1.104832,-0.221552,0.153232,-17.5,3.08,-11.55,-0.45938047925189945,0.06662770309760374,-0.146697837521917
1746544127.6015477,1.0931199999999999,-0.20349599999999998,0.13663999999999998,-17.01,5.53,-11.48,-0.45938047925189945,0.06662770309760374,-0.146697837521917
1746544127.6074467,1.084824,-0.189832,0.130296,-16.87,8.540000000000001,-11.830000000000002,-0.45938047925189945,0.06662770309760374,-0.146697837521917
1746544127.6112967,1.057008,-0.18348799999999998,0.13419999999999999,-16.520000000000003,11.48,-11.760000000000002,-0.45938047925189945,0.06662770309760374,-0.146697837521917
1746544127.6161573,1.004792,-0.1586,0.13663999999999998,-16.03,13.580000000000002,-12.530000000000001,-0.45938047925189945,0.06662770309760374,-0.146697837521917
1746544127.6210275,0.99796,-0.160552,0.120048,-15.680000000000001,14.980000000000002,-12.180000000000001,-0.45938047925189945,0.06662770309760374,-0.146697837521917
1746544127.6258924,0.989664,-0.157624,0.11809599999999999,-15.260000000000002,16.66,-12.110000000000001,-0.45938047925189945,0.06662770309760374,-0.146697837521917
1746544127.6307626,0.987224,-0.144448,0.110288,-14.910000000000002,18.340000000000003,-11.620000000000001,-0.45938047925189945,0.06662770309760374,-0.146697837521917
1746544127.6356323,0.9730719999999999,-0.149328,0.105408,-14.420000000000002,20.23,-10.780000000000001,-0.45938047925189945,0.06662770309760374,-0.146697837521917
1746544127.6404972,0.9657519999999999,-0.151768,0.114192,-13.790000000000001,21.98,-9.170000000000002,-0.45938047925189945,0.06662770309760374,-0.146697837521917
1746544127.645362,0.9520879999999999,-0.210328,0.08588799999999999,-11.48,24.430000000000003,-7.5600000000000005,-0.45938047925189945,0.06662770309760374,-0.146697837521917
1746544127.65023,0.962824,-0.166896,0.083936,-10.22,25.270000000000003,-4.83,-0.45938047925189945,0.06662770309760374,-0.146697837521917
1746544127.6550994,1.016016,-0.132736,0.112728,-9.38,25.69,-3.3600000000000003,-0.45938047925189945,0.06662770309760374,-0.146697837521917
1746544127.6606739,0.856928,-0.167384,0.06588,-8.120000000000001,27.720000000000002,-4.2700000000000005,-0.45938047925189945,0.06662770309760374,-0.146697837521917
1746544127.6648374,0.856928,-0.17177599999999998,0.041968,-6.720000000000001,25.970000000000002,-4.48,-0.45938047925189945,0.06662770309760374,-0.146697837521917
1746544127.669702,0.79544,-0.14835199999999998,0.009271999999999999,-5.460000000000001,23.17,-3.8500000000000005,-0.45938047925189945,0.06662770309760374,-0.146697837521917
1746544127.67457,0.782752,-0.133224,0.020984,-3.6400000000000006,21.07,-1.61,-0.45938047925189945,0.06662770309760374,-0.146697837521917
1746544127.6794393,0.859368,-0.163968,-0.001952,-1.61,17.78,0.28,-0.45938047925189945,0.06662770309760374,-0.146697837521917
1746544127.6843126,0.829112,-0.17812,0.008296,-0.07,17.290000000000003,-0.9100000000000001,-0.45938047925189945,0.06662770309760374,-0.146697837521917
1746544127.6891766,0.769088,-0.152256,0.073688,1.54,16.310000000000002,-2.87,-0.45938047925189945,0.06662770309760374,-0.146697837521917
1746544127.6940434,0.7686,-0.13908,0.050752,2.8000000000000003,12.81,-3.5000000000000004,-0.45938047925189945,0.06662770309760374,-0.146697837521917
1746544127.698912,0.752008,-0.155184,0.07124799999999999,3.22,11.200000000000001,-3.5700000000000003,-0.45938047925189945,0.06662770309760374,-0.146697837521917
1746544127.70378,0.7290719999999999,-0.0053679999999999995,0.095648,3.22,11.410000000000002,-4.760000000000001,-0.45938047925189945,0.06662770309760374,-0.146697837521917
1746544127.7086487,0.905728,0.055144,0.278648,2.45,14.280000000000001,-0.21000000000000002,-0.45938047925189945,0.06662770309760374,-0.146697837521917
1746544127.7142217,1.182424,0.01464,0.149816,1.05,8.190000000000001,5.32,-0.45938047925189945,0.06662770309760374,-0.146697837521917
1746544127.7183821,0.870592,-0.122488,0.008784,-0.56,16.17,0.0,-0.45938047925189945,0.06662770309760374,-0.146697837521917
1746544127.7232494,0.474336,-0.025863999999999998,0.303536,-0.42000000000000004,25.480000000000004,-8.540000000000001,-0.45938047925189945,0.06662770309760374,-0.146697837521917
1746544127.728117,0.552416,0.12102399999999999,0.225944,-0.28,9.870000000000001,-7.3500000000000005,-0.45938047925189945,0.06662770309760374,-0.146697837521917
1746544127.732986,0.8510719999999999,0.025863999999999998,-0.0034159999999999998,-1.05,1.9600000000000002,-2.1700000000000004,-0.45938047925189945,0.06662770309760374,-0.146697837521917
1746544127.7378623,0.844728,0.045871999999999996,0.08052,-2.1,10.71,-2.66,-0.45938047925189945,0.06662770309760374,-0.146697837521917
1746544127.7427304,0.7032079999999999,0.158112,0.250832,-3.43,14.350000000000001,-3.43,-0.45938047925189945,0.06662770309760374,-0.146697837521917
1746544127.7475996,0.642208,-0.089304,0.06344,-3.99,5.390000000000001,1.6800000000000002,-0.45938047925189945,0.06662770309760374,-0.146697837521917
1746544127.7524672,0.725656,-0.083448,0.020007999999999998,-2.9400000000000004,3.6400000000000006,-1.6800000000000002,-0.45938047925189945,0.06662770309760374,-0.146697837521917
1746544127.7573342,0.8227679999999999,-0.098576,0.049288,-1.1900000000000002,3.99,-1.9600000000000002,-0.45938047925189945,0.06662770309760374,-0.146697837521917
1746544127.7622058,0.853024,-0.096624,0.06344,0.6300000000000001,-1.2600000000000002,-1.1900000000000002,-0.45938047925189945,0.06662770309760374,-0.146697837521917
1746544127.7677867,0.5909679999999999,-0.152256,0.135664,2.66,-1.05,-1.4700000000000002,-0.45938047925189945,0.06662770309760374,-0.146697837521917
1746544127.7719638,0.5909679999999999,-0.152256,0.135664,3.7800000000000002,-11.410000000000002,-0.28,-0.45938047925189945,0.06662770309760374,-0.146697837521917
1746544127.7768254,0.625128,-0.089304,0.008296,4.41,-18.200000000000003,2.1700000000000004,-0.45938047925189945,0.06662770309760374,-0.146697837521917
1746544127.7816927,0.785192,-0.11809599999999999,0.02684,4.9,-17.150000000000002,1.2600000000000002,-0.45938047925189945,0.06662770309760374,-0.146697837521917
1746544127.7865667,0.647088,-0.10492,0.09174399999999999,5.74,-17.990000000000002,1.05,-0.4570426651081239,0.061952074810052604,-0.1455289304500292
1746544127.7914557,0.6329359999999999,-0.12688,0.099552,6.300000000000001,-22.610000000000003,2.1700000000000004,-0.4570426651081239,0.061952074810052604,-0.1455289304500292
1746544127.7963128,0.6661199999999999,-0.13176,0.070272,6.930000000000001,-26.810000000000002,1.05,-0.4570426651081239,0.061952074810052604,-0.1455289304500292
1746544127.8011844,0.7076,-0.064416,0.10736,7.490000000000001,-29.26,0.28,-0.4570426651081239,0.061952074810052604,-0.1455289304500292
1746544127.8060567,0.798368,-0.118584,0.062952,8.05,-32.760000000000005,2.8000000000000003,-0.4570426651081239,0.061952074810052604,-0.1455289304500292
1746544127.8109303,0.76372,-0.13176,0.075152,8.540000000000001,-32.690000000000005,2.66,-0.4570426651081239,0.061952074810052604,-0.1455289304500292
1746544127.815802,0.708576,-0.092232,0.120048,9.24,-33.46,1.4000000000000001,-0.4570426651081239,0.061952074810052604,-0.1455289304500292
1746544127.827279,0.74664,-0.08881599999999999,0.12834399999999999,10.57,-39.410000000000004,2.87,-0.4570426651081239,0.061952074810052604,-0.1455289304500292
1746544127.8303647,0.80764,-0.11516799999999999,0.07124799999999999,11.410000000000002,-39.27,2.1,-0.4570426651081239,0.061952074810052604,-0.1455289304500292
1746544127.8352268,0.781776,-0.10736,0.101504,12.46,-39.27,2.0300000000000002,-0.4570426651081239,0.061952074810052604,-0.1455289304500292
1746544127.8400998,0.783728,-0.133712,0.092232,13.790000000000001,-40.11000000000001,2.7300000000000004,-0.4570426651081239,0.061952074810052604,-0.1455289304500292
1746544127.8449676,0.80276,-0.149328,0.086376,15.610000000000001,-39.970000000000006,2.1700000000000004,-0.4570426651081239,0.061952074810052604,-0.1455289304500292
1746544127.849842,0.7881199999999999,-0.107848,0.105408,17.220000000000002,-39.760000000000005,1.2600000000000002,-0.4570426651081239,0.061952074810052604,-0.1455289304500292
1746544127.8547158,0.81008,-0.099064,0.09467199999999999,18.41,-41.02,2.24,-0.4570426651081239,0.061952074810052604,-0.1455289304500292
1746544127.8595898,0.830576,-0.101016,0.10052799999999999,19.110000000000003,-42.14,3.2900000000000005,-0.4570426651081239,0.061952074810052604,-0.1455289304500292
1746544127.864464,0.8559519999999999,-0.105408,0.078568,19.32,-42.84,3.5000000000000004,-0.4570426651081239,0.061952074810052604,-0.1455289304500292
1746544127.8692951,0.923296,-0.078568,0.105896,19.180000000000003,-43.050000000000004,3.99,-0.4570426651081239,0.061952074810052604,-0.1455289304500292
1746544127.8741663,1.019432,-0.10052799999999999,0.09516,18.830000000000002,-43.260000000000005,5.460000000000001,-0.4570426651081239,0.061952074810052604,-0.1455289304500292
1746544127.8819764,1.055056,-0.116144,0.055632,17.080000000000002,-38.36000000000001,5.180000000000001,-0.4570426651081239,0.061952074810052604,-0.1455289304500292
1746544127.8849359,1.016016,-0.076616,0.08003199999999999,15.750000000000002,-36.190000000000005,6.090000000000001,-0.4570426651081239,0.061952074810052604,-0.1455289304500292
1746544127.8897982,0.9964959999999999,-0.084424,0.075152,14.350000000000001,-35.07,6.930000000000001,-0.4570426651081239,0.061952074810052604,-0.1455289304500292
1746544127.8946724,1.023336,-0.101992,0.055144,13.160000000000002,-34.230000000000004,7.3500000000000005,-0.4570426651081239,0.061952074810052604,-0.1455289304500292
1746544127.8995411,1.04676,-0.093208,0.022935999999999998,12.32,-33.25,7.3500000000000005,-0.4570426651081239,0.061952074810052604,-0.1455289304500292
1746544127.904416,1.054568,-0.08881599999999999,0.009271999999999999,11.760000000000002,-31.640000000000004,8.260000000000002,-0.4570426651081239,0.061952074810052604,-0.1455289304500292
1746544127.90929,1.068232,-0.097112,-0.008784,11.410000000000002,-30.520000000000003,8.75,-0.4570426651081239,0.061952074810052604,-0.1455289304500292
1746544127.9141614,1.065792,-0.083448,-0.017079999999999998,11.270000000000001,-29.050000000000004,8.610000000000001,-0.4570426651081239,0.061952074810052604,-0.1455289304500292
1746544127.9190292,1.11752,-0.091256,-0.02196,11.340000000000002,-28.28,9.170000000000002,-0.4570426651081239,0.061952074810052604,-0.1455289304500292
1746544127.923913,1.1224,-0.086376,-0.025376,11.48,-27.160000000000004,8.540000000000001,-0.4570426651081239,0.061952074810052604,-0.1455289304500292
1746544127.9287841,1.187304,-0.122,-0.027816,11.760000000000002,-25.62,8.260000000000002,-0.4570426651081239,0.061952074810052604,-0.1455289304500292
1746544127.9359272,1.162416,-0.135176,-0.01464,12.740000000000002,-21.630000000000003,4.340000000000001,-0.4570426651081239,0.061952074810052604,-0.1455289304500292
1746544127.938991,1.176568,-0.135176,-0.01464,12.740000000000002,-21.630000000000003,4.340000000000001,-0.4570426651081239,0.061952074810052604,-0.1455289304500292
1746544127.9438562,1.1794959999999999,-0.130296,-0.0053679999999999995,13.090000000000002,-20.51,1.61,-0.4570426651081239,0.061952074810052604,-0.1455289304500292
1746544127.9487295,1.220488,-0.129808,-0.017079999999999998,13.580000000000002,-19.67,0.28,-0.4570426651081239,0.061952074810052604,-0.1455289304500292
1746544127.9536016,1.243912,-0.14249599999999998,-0.02196,14.14,-17.78,-3.22,-0.4570426651081239,0.061952074810052604,-0.1455289304500292
1746544127.95847,1.2287839999999999,-0.142984,-0.010248,14.560000000000002,-14.420000000000002,-5.040000000000001,-0.4570426651081239,0.061952074810052604,-0.1455289304500292
1746544127.9633417,1.19316,-0.144448,-0.012199999999999999,15.47,-13.930000000000001,-7.07,-0.4570426651081239,0.061952074810052604,-0.1455289304500292
1746544127.9682066,1.185352,-0.13908,-0.012199999999999999,15.610000000000001,-13.860000000000001,-9.38,-0.4570426651081239,0.061952074810052604,-0.1455289304500292
1746544127.973081,1.1941359999999999,-0.10736,0.07710399999999999,14.700000000000001,-13.72,-11.55,-0.4570426651081239,0.061952074810052604,-0.1455289304500292
1746544127.9779484,1.22732,-0.132736,0.06588,12.88,-14.770000000000001,-13.930000000000001,-0.4488603156049094,0.04441846873173583,-0.11279953243717125
1746544127.982815,1.052128,-0.138592,0.11712,11.200000000000001,-15.190000000000001,-17.430000000000003,-0.4488603156049094,0.04441846873173583,-0.11279953243717125
1746544127.988993,1.055544,-0.120048,0.11468,10.010000000000002,-19.32,-19.740000000000002,-0.4488603156049094,0.04441846873173583,-0.11279953243717125
1746544127.992555,1.13948,-0.115656,0.06344,9.030000000000001,-23.94,-20.580000000000002,-0.4488603156049094,0.04441846873173583,-0.11279953243717125
1746544127.9974227,1.209752,-0.110776,0.035136,8.610000000000001,-25.69,-22.12,-0.4488603156049094,0.04441846873173583,-0.11279953243717125
1746544128.0022905,1.198528,-0.081496,0.051727999999999996,8.610000000000001,-26.320000000000004,-24.430000000000003,-0.4488603156049094,0.04441846873173583,-0.11279953243717125
1746544128.0071652,1.196576,-0.084424,0.02684,9.030000000000001,-28.980000000000004,-26.810000000000002,-0.4488603156049094,0.04441846873173583,-0.11279953243717125
1746544128.0120313,1.2190239999999999,-0.083936,0.00244,9.8,-31.220000000000002,-29.470000000000002,-0.4488603156049094,0.04441846873173583,-0.11279953243717125
1746544128.0168989,1.243912,-0.061,-0.016592,10.850000000000001,-33.32,-31.570000000000004,-0.4488603156049094,0.04441846873173583,-0.11279953243717125
1746544128.021769,1.301496,-0.061,-0.019032,11.97,-35.07,-32.13,-0.4488603156049094,0.04441846873173583,-0.11279953243717125
1746544128.026643,1.400072,-0.07124799999999999,-0.02196,12.950000000000001,-36.190000000000005,-31.85,-0.4488603156049094,0.04441846873173583,-0.11279953243717125
1746544128.0315187,1.45912,-0.079544,-0.000488,13.650000000000002,-35.0,-31.570000000000004,-0.4488603156049094,0.04441846873173583,-0.11279953243717125
1746544128.036376,1.501576,-0.08881599999999999,0.044407999999999996,14.21,-32.900000000000006,-31.360000000000003,-0.4488603156049094,0.04441846873173583,-0.11279953243717125
1746544128.0420609,1.5493999999999999,-0.07564,0.06539199999999999,14.21,-31.85,-30.450000000000003,-0.4488603156049094,0.04441846873173583,-0.11279953243717125
1746544128.0461166,1.547936,-0.111752,0.030744,13.860000000000001,-29.680000000000003,-27.790000000000003,-0.4488603156049094,0.04441846873173583,-0.11279953243717125
1746544128.050988,1.490352,-0.093208,0.096136,13.440000000000001,-25.130000000000003,-26.390000000000004,-0.4488603156049094,0.04441846873173583,-0.11279953243717125
1746544128.055855,1.482056,-0.07417599999999999,0.09516,12.88,-23.590000000000003,-23.310000000000002,-0.4488603156049094,0.04441846873173583,-0.11279953243717125
1746544128.0607228,1.491328,-0.08003199999999999,0.09272,12.32,-21.560000000000002,-19.67,-0.4488603156049094,0.04441846873173583,-0.11279953243717125
1746544128.0655894,1.50792,-0.093208,0.0732,12.180000000000001,-19.180000000000003,-16.17,-0.4488603156049094,0.04441846873173583,-0.11279953243717125
1746544128.0704618,1.462536,-0.095648,0.067832,12.32,-15.750000000000002,-10.15,-0.4488603156049094,0.04441846873173583,-0.11279953243717125
1746544128.0753307,1.382504,-0.086376,0.08881599999999999,12.600000000000001,-11.410000000000002,-6.930000000000001,-0.4488603156049094,0.04441846873173583,-0.11279953243717125
1746544128.0801983,1.3249199999999999,-0.07808,0.099064,13.440000000000001,-11.06,-3.9200000000000004,-0.4488603156049094,0.04441846873173583,-0.11279953243717125
1746544128.0850651,1.296616,-0.072712,0.096624,14.000000000000002,-10.22,-1.1900000000000002,-0.4488603156049094,0.04441846873173583,-0.11279953243717125
1746544128.089936,1.2444,-0.084912,0.096624,14.840000000000002,-9.450000000000001,1.4700000000000002,-0.4488603156049094,0.04441846873173583,-0.11279953243717125
1746544128.0955272,1.152656,-0.09272,0.10004,15.820000000000002,-9.520000000000001,3.7800000000000002,-0.4488603156049094,0.04441846873173583,-0.11279953243717125
1746544128.0996733,1.142896,-0.084424,0.10004,16.87,-9.940000000000001,5.74,-0.4488603156049094,0.04441846873173583,-0.11279953243717125
1746544128.1045408,1.160952,-0.0732,0.089304,17.57,-10.080000000000002,7.7700000000000005,-0.4488603156049094,0.04441846873173583,-0.11279953243717125
1746544128.1094089,1.140944,-0.07808,0.066368,18.41,-9.38,9.73,-0.4488603156049094,0.04441846873173583,-0.11279953243717125
1746544128.1142783,1.083848,-0.076128,0.08881599999999999,19.46,-8.47,10.360000000000001,-0.4488603156049094,0.04441846873173583,-0.11279953243717125
1746544128.1191478,1.083848,-0.077592,0.08052,20.790000000000003,-10.080000000000002,10.500000000000002,-0.4488603156049094,0.04441846873173583,-0.11279953243717125
1746544128.1240156,1.110688,-0.059047999999999996,0.069296,22.26,-10.64,10.57,-0.4488603156049094,0.04441846873173583,-0.11279953243717125
1746544128.128886,1.1204479999999999,-0.057096,0.088328,23.8,-9.520000000000001,11.340000000000002,-0.4488603156049094,0.04441846873173583,-0.11279953243717125
1746544128.1337535,1.103368,-0.041479999999999996,0.11516799999999999,25.200000000000003,-8.96,12.110000000000001,-0.4488603156049094,0.04441846873173583,-0.11279953243717125
1746544128.13862,1.108248,-0.043432,0.10004,26.53,-8.96,13.090000000000002,-0.4488603156049094,0.04441846873173583,-0.11279953243717125
1746544128.1435163,1.118496,-0.049776,0.10638399999999999,27.790000000000003,-7.910000000000001,13.3,-0.4488603156049094,0.04441846873173583,-0.11279953243717125
1746544128.1491,1.129232,-0.042456,0.099552,29.050000000000004,-6.790000000000001,13.090000000000002,-0.4488603156049094,0.04441846873173583,-0.11279953243717125
1746544128.153241,1.1326479999999999,-0.032695999999999996,0.08784,30.240000000000002,-5.040000000000001,13.23,-0.4488603156049094,0.04441846873173583,-0.11279953243717125
1746544128.158103,1.101416,-0.015616,0.08784,31.220000000000002,-2.66,13.020000000000001,-0.4488603156049094,0.04441846873173583,-0.11279953243717125
1746544128.1629825,1.087264,-0.00732,0.102968,31.92,-0.49000000000000005,13.860000000000001,-0.4488603156049094,0.04441846873173583,-0.11279953243717125
1746544128.1678386,1.096048,-0.012688,0.08784,32.760000000000005,0.9100000000000001,14.560000000000002,-0.4488603156049094,0.04441846873173583,-0.11279953243717125
1746544128.1727097,1.097024,-0.022935999999999998,0.075152,33.32,3.3600000000000003,14.840000000000002,-0.46171829339567505,0.031560490940970194,-0.11864406779661017
1746544128.1775763,1.069696,-0.016592,0.076616,33.67,5.880000000000001,14.840000000000002,-0.46171829339567505,0.031560490940970194,-0.11864406779661017
1746544128.1824422,1.054568,-0.015127999999999999,0.072712,33.95,8.82,15.820000000000002,-0.46171829339567505,0.031560490940970194,-0.11864406779661017
1746544128.1873193,1.02968,-0.01464,0.069296,34.230000000000004,11.13,17.360000000000003,-0.46171829339567505,0.031560490940970194,-0.11864406779661017
1746544128.1921823,1.011624,-0.020007999999999998,0.06344,34.300000000000004,15.47,18.41,-0.46171829339567505,0.031560490940970194,-0.11864406779661017
1746544128.1970549,0.993568,-0.02684,0.054655999999999996,34.440000000000005,17.85,19.180000000000003,-0.46171829339567505,0.031560490940970194,-0.11864406779661017
1746544128.2026396,0.9545279999999999,-0.043432,0.034648,34.370000000000005,20.160000000000004,19.740000000000002,-0.46171829339567505,0.031560490940970194,-0.11864406779661017
1746544128.206794,0.9545279999999999,-0.043432,-0.01464,34.370000000000005,21.910000000000004,19.810000000000002,-0.46171829339567505,0.031560490940970194,-0.11864406779661017
1746544128.2116609,0.935496,0.072224,-0.120048,33.040000000000006,23.240000000000002,19.250000000000004,-0.46171829339567505,0.031560490940970194,-0.11864406779661017
1746544128.2165308,0.707112,-0.042456,0.163968,31.150000000000002,25.62,22.26,-0.46171829339567505,0.031560490940970194,-0.11864406779661017
1746544128.2213964,1.321992,-0.286456,0.045871999999999996,31.710000000000004,16.240000000000002,21.000000000000004,-0.46171829339567505,0.031560490940970194,-0.11864406779661017
1746544128.2262647,1.2780719999999999,-0.008296,-0.282064,30.94,20.3,9.170000000000002,-0.46171829339567505,0.031560490940970194,-0.11864406779661017
1746544128.2311502,0.8866959999999999,0.040504,0.017079999999999998,30.1,43.470000000000006,10.500000000000002,-0.46171829339567505,0.031560490940970194,-0.11864406779661017
1746544128.2360098,0.510448,-0.032208,0.11809599999999999,28.980000000000004,41.02,19.46,-0.46171829339567505,0.031560490940970194,-0.11864406779661017
1746544128.240876,0.374784,-0.09272,0.033184,27.720000000000002,28.980000000000004,20.51,-0.46171829339567505,0.031560490940970194,-0.11864406779661017
1746544128.2457476,0.784216,-0.105896,-0.022448,27.51,22.750000000000004,16.8,-0.46171829339567505,0.031560490940970194,-0.11864406779661017
1746544128.2506216,1.025288,-0.012199999999999999,-0.048799999999999996,26.950000000000003,23.94,15.610000000000001,-0.46171829339567505,0.031560490940970194,-0.11864406779661017
1746544128.256214,0.943792,-0.055632,-0.062952,25.900000000000002,28.560000000000002,19.250000000000004,-0.46171829339567505,0.031560490940970194,-0.11864406779661017
1746544128.260359,0.709064,-0.137616,-0.0034159999999999998,24.85,32.900000000000006,18.69,-0.46171829339567505,0.031560490940970194,-0.11864406779661017
1746544128.2652354,0.598776,-0.101016,0.049288,24.570000000000004,29.960000000000004,14.560000000000002,-0.46171829339567505,0.031560490940970194,-0.11864406779661017
1746544128.2700949,0.74664,-0.081496,0.037087999999999996,24.080000000000002,22.96,13.650000000000002,-0.46171829339567505,0.031560490940970194,-0.11864406779661017
1746544128.2749648,0.877424,-0.074664,-0.048799999999999996,22.96,19.810000000000002,14.280000000000001,-0.46171829339567505,0.031560490940970194,-0.11864406779661017
1746544128.2798328,0.793976,-0.06588,-0.045384,21.42,22.610000000000003,15.05,-0.46171829339567505,0.031560490940970194,-0.11864406779661017
1746544128.2847116,0.67832,-0.092232,0.020984,20.37,23.520000000000003,16.240000000000002,-0.46171829339567505,0.031560490940970194,-0.11864406779661017
1746544128.289571,0.665144,-0.092232,0.05856,19.53,18.830000000000002,16.380000000000003,-0.46171829339567505,0.031560490940970194,-0.11864406779661017
1746544128.294437,0.746152,-0.106872,-0.016104,18.69,14.14,15.890000000000002,-0.46171829339567505,0.031560490940970194,-0.11864406779661017
1746544128.2993064,0.766648,-0.06588,-0.043432,17.57,14.560000000000002,14.770000000000001,-0.46171829339567505,0.031560490940970194,-0.11864406779661017
1746544128.304178,0.742248,-0.061488,0.018543999999999998,16.450000000000003,15.820000000000002,17.080000000000002,-0.46171829339567505,0.031560490940970194,-0.11864406779661017
1746544128.3097658,0.661728,-0.081008,0.008296,14.000000000000002,11.97,17.430000000000003,-0.46171829339567505,0.031560490940970194,-0.11864406779661017
1746544128.3139162,0.6426959999999999,-0.09467199999999999,0.008296,13.3,8.33,17.78,-0.46171829339567505,0.031560490940970194,-0.11864406779661017
1746544128.3187826,0.708576,-0.08784,0.011224,12.250000000000002,5.32,18.62,-0.46171829339567505,0.031560490940970194,-0.11864406779661017
1746544128.3236601,0.811056,-0.094184,-0.032695999999999996,10.920000000000002,4.83,18.130000000000003,-0.46171829339567505,0.031560490940970194,-0.11864406779661017
1746544128.3285272,0.787632,-0.10004,0.017568,9.66,3.5700000000000003,18.200000000000003,-0.46171829339567505,0.031560490940970194,-0.11864406779661017
1746544128.333387,0.752008,-0.10931199999999999,-0.011712,8.540000000000001,-1.12,16.66,-0.46171829339567505,0.031560490940970194,-0.11864406779661017
1746544128.3382604,0.813008,-0.08588799999999999,-0.009271999999999999,7.490000000000001,-3.7800000000000002,15.47,-0.46171829339567505,0.031560490940970194,-0.11864406779661017
1746544128.3431253,0.82716,-0.075152,-0.023424,6.44,-5.040000000000001,14.980000000000002,-0.46171829339567505,0.031560490940970194,-0.11864406779661017
1746544128.3479943,0.7686,-0.069784,-0.02196,5.32,-5.6000000000000005,15.05,-0.46171829339567505,0.031560490940970194,-0.11864406779661017
1746544128.3528614,0.756888,-0.07808,-0.011224,4.130000000000001,-6.86,14.980000000000002,-0.46171829339567505,0.031560490940970194,-0.11864406779661017
1746544128.3577313,0.744688,-0.078568,-0.016592,3.0100000000000002,-8.540000000000001,14.000000000000002,-0.46171829339567505,0.031560490940970194,-0.11864406779661017
1746544128.369212,0.808616,-0.08295999999999999,-0.01952,1.33,-9.8,11.410000000000002,-0.4441846873173583,0.040911747516072475,-0.16072472238457042
1746544128.3720784,0.8115439999999999,-0.082472,-0.014152,0.49000000000000005,-8.33,11.200000000000001,-0.4441846873173583,0.040911747516072475,-0.16072472238457042
1746544128.3769407,0.87108,-0.09467199999999999,-0.031232,0.0,-9.520000000000001,10.920000000000002,-0.4441846873173583,0.040911747516072475,-0.16072472238457042
1746544128.3818083,0.87352,-0.115656,-0.038551999999999996,-0.42000000000000004,-8.680000000000001,9.170000000000002,-0.4441846873173583,0.040911747516072475,-0.16072472238457042
1746544128.386677,0.87352,-0.090768,0.002928,-0.77,-7.07,7.420000000000001,-0.4441846873173583,0.040911747516072475,-0.16072472238457042
1746544128.3915577,0.87596,-0.08881599999999999,-0.017568,-1.1900000000000002,-8.33,6.510000000000001,-0.4441846873173583,0.040911747516072475,-0.16072472238457042
1746544128.3964257,0.9125599999999999,-0.131272,-0.030744,-1.6800000000000002,-7.910000000000001,5.95,-0.4441846873173583,0.040911747516072475,-0.16072472238457042
1746544128.4012902,0.8608319999999999,-0.112728,-0.017568,-2.1700000000000004,-6.86,4.2,-0.4441846873173583,0.040911747516072475,-0.16072472238457042
1746544128.4061556,0.900848,-0.092232,-0.009271999999999999,-2.5200000000000005,-7.210000000000001,3.9200000000000004,-0.4441846873173583,0.040911747516072475,-0.16072472238457042
1746544128.4110262,0.915488,-0.10736,-0.030255999999999998,-3.6400000000000006,-7.000000000000001,3.22,-0.4441846873173583,0.040911747516072475,-0.16072472238457042
1746544128.4158938,0.92476,-0.110288,-0.027816,-5.040000000000001,-5.880000000000001,1.4000000000000001,-0.4441846873173583,0.040911747516072475,-0.16072472238457042
1746544128.4237235,0.9101199999999999,-0.06831999999999999,-0.00976,-8.540000000000001,-6.0200000000000005,-0.42000000000000004,-0.4441846873173583,0.040911747516072475,-0.16072472238457042
1746544128.4265773,0.9125599999999999,-0.09028,-0.017568,-10.64,-6.300000000000001,-0.9800000000000001,-0.4441846873173583,0.040911747516072475,-0.16072472238457042
1746544128.4314466,0.947696,-0.08881599999999999,-0.050752,-12.600000000000001,-8.05,-1.54,-0.4441846873173583,0.040911747516072475,-0.16072472238457042
1746544128.4363136,0.9594079999999999,-0.064416,-0.036112,-14.700000000000001,-8.47,-1.4700000000000002,-0.4441846873173583,0.040911747516072475,-0.16072472238457042
1746544128.4411838,0.941352,-0.066368,-0.056119999999999996,-17.220000000000002,-9.24,-1.61,-0.4441846873173583,0.040911747516072475,-0.16072472238457042
1746544128.4460497,0.937448,-0.090768,-0.019032,-19.53,-9.590000000000002,-1.33,-0.4441846873173583,0.040911747516072475,-0.16072472238457042
1746544128.4509258,0.959896,-0.055144,-0.023424,-21.840000000000003,-12.040000000000001,-1.4000000000000001,-0.4441846873173583,0.040911747516072475,-0.16072472238457042
1746544128.455791,0.978928,-0.087352,-0.039528,-24.290000000000003,-12.88,-0.9800000000000001,-0.4441846873173583,0.040911747516072475,-0.16072472238457042
1746544128.4606605,0.978928,-0.088328,-0.035623999999999996,-26.46,-13.23,-1.05,-0.4441846873173583,0.040911747516072475,-0.16072472238457042
1746544128.4655278,1.020408,-0.09272,-0.052704,-28.28,-14.350000000000001,-0.8400000000000001,-0.4441846873173583,0.040911747516072475,-0.16072472238457042
1746544128.4703987,0.987712,-0.081496,-0.053191999999999996,-29.890000000000004,-14.770000000000001,-1.7500000000000002,-0.4441846873173583,0.040911747516072475,-0.16072472238457042
1746544128.4776788,1.0365119999999999,-0.122976,-0.042943999999999996,-32.970000000000006,-16.1,-2.0300000000000002,-0.4441846873173583,0.040911747516072475,-0.16072472238457042
1746544128.4805295,1.055056,-0.101504,-0.03172,-32.970000000000006,-16.1,-2.0300000000000002,-0.4441846873173583,0.040911747516072475,-0.16072472238457042
1746544128.4853995,0.992592,-0.098088,-0.050263999999999996,-34.230000000000004,-17.71,-3.7100000000000004,-0.4441846873173583,0.040911747516072475,-0.16072472238457042
1746544128.4902658,1.0492,-0.11712,-0.042456,-35.14,-18.69,-3.3600000000000003,-0.4441846873173583,0.040911747516072475,-0.16072472238457042
1746544128.4951336,1.03944,-0.12688,-0.05368,-36.050000000000004,-20.160000000000004,-3.6400000000000006,-0.4441846873173583,0.040911747516072475,-0.16072472238457042
1746544128.5000107,1.03456,-0.120048,-0.030744,-36.96,-21.000000000000004,-4.2,-0.4441846873173583,0.040911747516072475,-0.16072472238457042
1746544128.5048754,0.97844,-0.114192,-0.063928,-37.800000000000004,-22.610000000000003,-5.74,-0.4441846873173583,0.040911747516072475,-0.16072472238457042
1746544128.5097425,1.0413919999999999,-0.145912,-0.021471999999999998,-38.290000000000006,-23.520000000000003,-5.6000000000000005,-0.4441846873173583,0.040911747516072475,-0.16072472238457042
1746544128.5146108,1.003816,-0.10736,-0.07076,-39.06,-25.62,-5.670000000000001,-0.4441846873173583,0.040911747516072475,-0.16072472238457042
1746544128.519482,1.038464,-0.143472,-0.035136,-40.18000000000001,-27.090000000000003,-6.370000000000001,-0.4441846873173583,0.040911747516072475,-0.16072472238457042
1746544128.5243487,1.04676,-0.12444,-0.032695999999999996,-40.81,-27.930000000000003,-6.370000000000001,-0.4441846873173583,0.040911747516072475,-0.16072472238457042
1746544128.53075,1.138992,-0.16006399999999998,-0.034648,-41.230000000000004,-27.44,-6.720000000000001,-0.4441846873173583,0.040911747516072475,-0.16072472238457042
1746544128.5340858,1.138992,-0.16006399999999998,-0.046848,-41.720000000000006,-27.37,-7.5600000000000005,-0.4441846873173583,0.040911747516072475,-0.16072472238457042
1746544128.5389538,1.087752,-0.155672,-0.058072,-41.86000000000001,-27.44,-8.540000000000001,-0.4441846873173583,0.040911747516072475,-0.16072472238457042
1746544128.543822,1.2239039999999999,-0.21862399999999999,-0.003904,-42.00000000000001,-26.740000000000002,-7.3500000000000005,-0.4441846873173583,0.040911747516072475,-0.16072472238457042
1746544128.5486908,1.115568,-0.155184,-0.04636,-42.35,-27.37,-9.31,-0.4441846873173583,0.040911747516072475,-0.16072472238457042
1746544128.5535574,1.222928,-0.198616,-0.016592,-42.35,-25.830000000000002,-8.05,-0.4441846873173583,0.040911747516072475,-0.16072472238457042
1746544128.5584242,1.164368,-0.164944,-0.052216,-42.42,-25.55,-9.520000000000001,-0.46171829339567505,0.04792518994739918,-0.13325540619520748
1746544128.5632937,1.0931199999999999,-0.789096,-0.366,-40.81,-31.85,-3.5000000000000004,-0.46171829339567505,0.04792518994739918,-0.13325540619520748
1746544128.5681713,1.846592,0.047824,-0.337208,-32.900000000000006,-36.96,-11.760000000000002,-0.46171829339567505,0.04792518994739918,-0.13325540619520748
1746544128.573034,2.12036,-0.7807999999999999,0.19763999999999998,-31.500000000000004,2.0300000000000002,-1.4000000000000001,-0.46171829339567505,0.04792518994739918,-0.13325540619520748
1746544128.5779023,2.220888,-0.278648,-0.21472,-26.110000000000003,0.9800000000000001,-28.140000000000004,-0.46171829339567505,0.04792518994739918,-0.13325540619520748
1746544128.5838308,1.126304,0.277184,-0.323544,-30.590000000000003,16.310000000000002,-38.36000000000001,-0.46171829339567505,0.04792518994739918,-0.13325540619520748
1746544128.5876417,-0.057096,0.000976,0.35282399999999997,-31.430000000000003,51.24,-16.450000000000003,-0.46171829339567505,0.04792518994739918,-0.13325540619520748
1746544128.5925105,0.5909679999999999,-0.21862399999999999,0.564616,-30.520000000000003,24.570000000000004,-6.720000000000001,-0.46171829339567505,0.04792518994739918,-0.13325540619520748
1746544128.5973806,1.510848,-0.228872,0.167384,-33.11000000000001,-17.57,-11.9,-0.46171829339567505,0.04792518994739918,-0.13325540619520748
1746544128.6022484,2.049112,-0.149816,-0.000976,-31.780000000000005,-15.330000000000002,-14.000000000000002,-0.46171829339567505,0.04792518994739918,-0.13325540619520748
1746544128.6071165,2.010072,-0.337696,-0.030744,-31.150000000000002,10.360000000000001,-13.650000000000002,-0.46171829339567505,0.04792518994739918,-0.13325540619520748
1746544128.6119864,1.094584,-0.10638399999999999,0.105408,-31.01,32.970000000000006,-21.630000000000003,-0.46171829339567505,0.04792518994739918,-0.13325540619520748
1746544128.6168528,0.993568,-0.213256,0.365024,-30.660000000000004,36.540000000000006,-21.21,-0.46171829339567505,0.04792518994739918,-0.13325540619520748
1746544128.6217241,1.330288,-0.136152,0.354776,-30.590000000000003,19.180000000000003,-22.470000000000002,-0.46171829339567505,0.04792518994739918,-0.13325540619520748
1746544128.6265905,1.450824,-0.137616,0.048312,-31.430000000000003,10.15,-20.3,-0.46171829339567505,0.04792518994739918,-0.13325540619520748
1746544128.6314647,1.306376,-0.12834399999999999,0.13908,-31.990000000000002,19.39,-17.360000000000003,-0.46171829339567505,0.04792518994739918,-0.13325540619520748
1746544128.6370413,1.218048,-0.23277599999999998,0.145424,-30.800000000000004,14.14,-21.840000000000003,-0.46171829339567505,0.04792518994739918,-0.13325540619520748
1746544128.6412027,1.175592,-0.23277599999999998,0.145424,-30.870000000000005,15.680000000000001,-26.46,-0.46171829339567505,0.04792518994739918,-0.13325540619520748
1746544128.646069,1.097512,-0.112728,0.225944,-31.220000000000002,15.890000000000002,-22.820000000000004,-0.46171829339567505,0.04792518994739918,-0.13325540619520748
1746544128.65094,0.996008,-0.218136,0.103944,-31.640000000000004,11.690000000000001,-17.64,-0.46171829339567505,0.04792518994739918,-0.13325540619520748
1746544128.6558104,0.93452,-0.213744,0.087352,-31.780000000000005,11.270000000000001,-19.53,-0.46171829339567505,0.04792518994739918,-0.13325540619520748
1746544128.6606774,0.939888,-0.14835199999999998,0.141032,-31.570000000000004,11.06,-20.580000000000002,-0.46171829339567505,0.04792518994739918,-0.13325540619520748
1746544128.6655476,1.0882399999999999,-0.171288,0.106872,-31.85,7.07,-18.200000000000003,-0.46171829339567505,0.04792518994739918,-0.13325540619520748
1746544128.6704326,1.192672,-0.195688,0.07124799999999999,-32.27,7.420000000000001,-17.85,-0.46171829339567505,0.04792518994739918,-0.13325540619520748
1746544128.675293,1.083848,-0.163968,0.10736,-32.900000000000006,10.99,-18.830000000000002,-0.46171829339567505,0.04792518994739918,-0.13325540619520748
1746544128.680158,1.045296,-0.169336,0.149328,-33.53,10.430000000000001,-17.64,-0.46171829339567505,0.04792518994739918,-0.13325540619520748
1746544128.6850524,1.113616,-0.190808,0.107848,-34.09,8.120000000000001,-16.59,-0.46171829339567505,0.04792518994739918,-0.13325540619520748
1746544128.6906235,1.164856,-0.18056,0.09174399999999999,-34.580000000000005,9.030000000000001,-16.94,-0.46171829339567505,0.04792518994739918,-0.13325540619520748
1746544128.694773,1.129232,-0.183,0.09028,-35.21,11.200000000000001,-16.310000000000002,-0.46171829339567505,0.04792518994739918,-0.13325540619520748
1746544128.6996386,1.065304,-0.201544,0.094184,-35.63,12.250000000000002,-15.610000000000001,-0.46171829339567505,0.04792518994739918,-0.13325540619520748
1746544128.7045066,1.0413919999999999,-0.19763999999999998,0.08881599999999999,-35.77,13.020000000000001,-15.330000000000002,-0.46171829339567505,0.04792518994739918,-0.13325540619520748
1746544128.7093759,1.0248,-0.190808,0.0732,-35.980000000000004,13.580000000000002,-14.980000000000002,-0.46171829339567505,0.04792518994739918,-0.13325540619520748
1746544128.714243,1.0004,-0.20105599999999998,0.064904,-36.050000000000004,14.490000000000002,-13.930000000000001,-0.46171829339567505,0.04792518994739918,-0.13325540619520748
1746544128.7191114,0.986736,-0.205936,0.06539199999999999,-36.050000000000004,15.610000000000001,-13.160000000000002,-0.46171829339567505,0.04792518994739918,-0.13325540619520748
1746544128.723979,0.974536,-0.20496,0.063928,-35.910000000000004,16.240000000000002,-12.740000000000002,-0.46171829339567505,0.04792518994739918,-0.13325540619520748
1746544128.7288465,0.96136,-0.203984,0.054655999999999996,-35.7,17.01,-12.46,-0.46171829339567505,0.04792518994739918,-0.13325540619520748
1746544128.7337134,0.9394,-0.20008,0.04636,-35.49,17.71,-12.180000000000001,-0.46171829339567505,0.04792518994739918,-0.13325540619520748
1746544128.7385836,0.9237839999999999,-0.20008,0.052216,-35.21,18.340000000000003,-11.830000000000002,-0.46171829339567505,0.04792518994739918,-0.13325540619520748
1746544128.7441537,0.911584,-0.195688,0.05368,-34.370000000000005,18.830000000000002,-11.410000000000002,-0.46171829339567505,0.04792518994739918,-0.13325540619520748
1746544128.7483187,0.9076799999999999,-0.19519999999999998,0.048312,-34.370000000000005,19.110000000000003,-11.9,-0.47808299240210406,0.06896551724137931,-0.12799532437171246
1746544128.75319,0.908656,-0.188368,0.044896,-32.830000000000005,19.6,-11.760000000000002,-0.47808299240210406,0.06896551724137931,-0.12799532437171246
1746544128.7580547,0.899872,-0.182512,0.052216,-32.2,20.860000000000003,-11.97,-0.47808299240210406,0.06896551724137931,-0.12799532437171246
1746544128.7629235,0.903776,-0.175192,0.06588,-31.080000000000002,21.630000000000003,-12.250000000000002,-0.47808299240210406,0.06896551724137931,-0.12799532437171246
1746544128.767798,0.892552,-0.155184,0.064416,-29.820000000000004,21.98,-12.600000000000001,-0.47808299240210406,0.06896551724137931,-0.12799532437171246
1746544128.772662,0.93696,-0.14396,0.064416,-28.700000000000003,23.240000000000002,-14.14,-0.47808299240210406,0.06896551724137931,-0.12799532437171246
1746544128.7775273,0.950624,-0.089304,0.081496,-27.580000000000002,24.360000000000003,-15.260000000000002,-0.47808299240210406,0.06896551724137931,-0.12799532437171246
1746544128.7823935,0.9076799999999999,-0.07076,0.08295999999999999,-26.320000000000004,25.130000000000003,-16.03,-0.47808299240210406,0.06896551724137931,-0.12799532437171246
1746544128.787263,0.940376,-0.08784,0.081984,-24.85,26.390000000000004,-17.64,-0.47808299240210406,0.06896551724137931,-0.12799532437171246
1746544128.7921634,0.8906,-0.079056,0.08588799999999999,-23.590000000000003,28.070000000000004,-18.48,-0.47808299240210406,0.06896551724137931,-0.12799532437171246
1746544128.7977557,0.881328,-0.061,0.141032,-22.26,28.42,-18.130000000000003,-0.47808299240210406,0.06896551724137931,-0.12799532437171246
1746544128.8018844,0.904264,-0.101016,0.116144,-20.720000000000002,28.000000000000004,-17.85,-0.47808299240210406,0.06896551724137931,-0.12799532437171246
1746544128.8067508,0.942816,-0.060511999999999996,0.072712,-19.180000000000003,29.330000000000002,-20.51,-0.47808299240210406,0.06896551724137931,-0.12799532437171246
1746544128.8116229,0.881328,-0.054168,0.111752,-17.92,32.900000000000006,-20.37,-0.47808299240210406,0.06896551724137931,-0.12799532437171246
1746544128.8164973,0.760792,-0.06539199999999999,0.066368,-16.8,32.06,-20.020000000000003,-0.47808299240210406,0.06896551724137931,-0.12799532437171246
1746544128.8213592,0.755912,-0.050752,0.027327999999999998,-16.240000000000002,30.94,-21.42,-0.47808299240210406,0.06896551724137931,-0.12799532437171246
1746544128.8262258,0.8349679999999999,-0.073688,0.030744,-15.96,30.520000000000003,-21.840000000000003,-0.47808299240210406,0.06896551724137931,-0.12799532437171246
1746544128.8310947,0.8891359999999999,-0.054168,0.0068319999999999995,-15.680000000000001,29.540000000000003,-22.05,-0.47808299240210406,0.06896551724137931,-0.12799532437171246
1746544128.8359616,0.835944,-0.055632,-0.02928,-15.540000000000001,30.520000000000003,-22.12,-0.47808299240210406,0.06896551724137931,-0.12799532437171246
1746544128.840829,0.767624,-0.050752,0.014152,-15.330000000000002,31.780000000000005,-22.540000000000003,-0.47808299240210406,0.06896551724137931,-0.12799532437171246
1746544128.8456964,0.732976,-0.017568,0.025376,-15.05,29.890000000000004,-22.750000000000004,-0.47808299240210406,0.06896551724137931,-0.12799532437171246
1746544128.851285,0.73444,-0.012199999999999999,0.022935999999999998,-14.770000000000001,25.970000000000002,-20.44,-0.47808299240210406,0.06896551724137931,-0.12799532437171246
1746544128.8554437,0.745664,-0.001464,0.018543999999999998,-14.560000000000002,25.970000000000002,-20.44,-0.47808299240210406,0.06896551724137931,-0.12799532437171246
1746544128.8603086,0.7646959999999999,-0.001464,0.028791999999999998,-14.350000000000001,23.94,-18.900000000000002,-0.47808299240210406,0.06896551724137931,-0.12799532437171246
1746544128.8651748,0.772992,-0.0034159999999999998,0.034159999999999996,-14.14,20.3,-18.200000000000003,-0.47808299240210406,0.06896551724137931,-0.12799532437171246
1746544128.8700554,0.779824,-0.015616,0.039528,-12.88,18.340000000000003,-17.64,-0.47808299240210406,0.06896551724137931,-0.12799532437171246
1746544128.874911,0.766648,-0.010735999999999999,0.044896,-11.9,16.03,-17.080000000000002,-0.47808299240210406,0.06896551724137931,-0.12799532437171246
1746544128.8797834,0.734928,0.015616,0.052216,-11.200000000000001,12.670000000000002,-15.680000000000001,-0.47808299240210406,0.06896551724137931,-0.12799532437171246
1746544128.8846505,0.71492,0.033672,0.031232,-10.850000000000001,8.540000000000001,-14.14,-0.47808299240210406,0.06896551724137931,-0.12799532437171246
1746544128.88952,0.758352,0.0366,0.0068319999999999995,-10.57,4.62,-12.88,-0.47808299240210406,0.06896551724137931,-0.12799532437171246
1746544128.8943877,0.79788,0.023912,-0.004392,-10.57,1.4000000000000001,-12.040000000000001,-0.47808299240210406,0.06896551724137931,-0.12799532437171246
1746544128.899257,0.828136,0.012688,-0.017568,-10.64,-1.2600000000000002,-11.690000000000001,-0.47808299240210406,0.06896551724137931,-0.12799532437171246
1746544128.9048254,0.82472,0.011712,-0.011224,-10.57,-3.1500000000000004,-11.760000000000002,-0.47808299240210406,0.06896551724137931,-0.12799532437171246
1746544128.9089942,0.889624,-0.008784,-0.005856,-10.500000000000002,-5.6000000000000005,-12.530000000000001,-0.47808299240210406,0.06896551724137931,-0.12799532437171246
1746544128.91386,0.8632719999999999,0.052216,-0.047824,-10.850000000000001,-7.490000000000001,-14.000000000000002,-0.47808299240210406,0.06896551724137931,-0.12799532437171246
1746544128.918729,0.772992,0.006344,-0.013176,-11.340000000000002,-7.700000000000001,-11.340000000000002,-0.47808299240210406,0.06896551724137931,-0.12799532437171246
1746544128.9235983,0.738344,-0.048799999999999996,0.037087999999999996,-11.13,-11.48,-9.66,-0.47808299240210406,0.06896551724137931,-0.12799532437171246
1746544128.9284656,0.940864,-0.029768,-0.079056,-10.15,-17.360000000000003,-10.780000000000001,-0.47808299240210406,0.06896551724137931,-0.12799532437171246
1746544128.9333327,0.835944,0.004392,-0.082472,-9.590000000000002,-14.840000000000002,-9.31,-0.47808299240210406,0.06896551724137931,-0.12799532437171246
1746544128.938199,0.7622559999999999,-0.042456,0.048799999999999996,-8.610000000000001,-14.700000000000001,-5.8100000000000005,-0.47808299240210406,0.06896551724137931,-0.12799532437171246
1746544128.9430726,0.737368,0.003904,-0.096136,-7.630000000000001,-21.000000000000004,-4.2700000000000005,-0.494447691408533,0.052600818234950324,-0.14202220923436587
1746544128.9479403,0.735904,0.007808,-0.00976,-6.65,-20.3,-1.1900000000000002,-0.494447691408533,0.052600818234950324,-0.14202220923436587
1746544128.9528103,0.791536,0.0,-0.024888,-5.880000000000001,-23.87,2.66,-0.494447691408533,0.052600818234950324,-0.14202220923436587
1746544128.9584007,0.847168,0.015127999999999999,-0.052704,-5.32,-24.92,4.340000000000001,-0.494447691408533,0.052600818234950324,-0.14202220923436587
1746544128.9625492,0.891576,0.022448,-0.025376,-4.9,-23.87,6.16,-0.494447691408533,0.052600818234950324,-0.14202220923436587
1746544128.967416,0.88816,-0.002928,-0.027816,-4.2700000000000005,-24.150000000000002,7.840000000000001,-0.494447691408533,0.052600818234950324,-0.14202220923436587
1746544128.9722838,0.950624,-0.023912,-0.023912,-3.5000000000000004,-23.660000000000004,8.33,-0.494447691408533,0.052600818234950324,-0.14202220923436587
1746544128.9771523,1.00284,-0.02196,-0.040992,-2.5200000000000005,-22.89,9.450000000000001,-0.494447691408533,0.052600818234950324,-0.14202220923436587
1746544128.9820201,0.995032,-0.046848,-0.040504,-1.1900000000000002,-20.790000000000003,10.500000000000002,-0.494447691408533,0.052600818234950324,-0.14202220923436587
1746544128.9868886,0.96868,-0.042943999999999996,-0.049288,1.61,-20.37,12.530000000000001,-0.494447691408533,0.052600818234950324,-0.14202220923436587
1746544128.9917572,0.9272,-0.04636,-0.043432,3.22,-21.07,15.05,-0.494447691408533,0.052600818234950324,-0.14202220923436587
1746544128.9966366,0.977464,-0.047824,-0.034648,4.69,-21.14,16.450000000000003,-0.494447691408533,0.052600818234950324,-0.14202220923436587
1746544129.001496,1.038464,-0.049288,-0.069784,5.880000000000001,-18.060000000000002,17.01,-0.494447691408533,0.052600818234950324,-0.14202220923436587
1746544129.0063655,1.028216,-0.059047999999999996,-0.038551999999999996,7.280000000000001,-15.750000000000002,17.78,-0.494447691408533,0.052600818234950324,-0.14202220923436587
1746544129.011956,1.0291919999999999,-0.078568,-0.089792,8.82,-15.47,18.69,-0.494447691408533,0.052600818234950324,-0.14202220923436587
1746544129.0161037,1.066768,-0.09272,-0.07564,10.64,-13.72,18.830000000000002,-0.494447691408533,0.052600818234950324,-0.14202220923436587
1746544129.0209718,1.106784,-0.067344,-0.066368,12.670000000000002,-12.950000000000001,18.060000000000002,-0.494447691408533,0.052600818234950324,-0.14202220923436587
1746544129.0258422,1.1794959999999999,-0.040992,-0.064416,14.21,-11.830000000000002,16.8,-0.494447691408533,0.052600818234950324,-0.14202220923436587
1746544129.030711,1.255624,-0.025376,-0.068808,15.330000000000002,-9.8,15.190000000000001,-0.494447691408533,0.052600818234950324,-0.14202220923436587
1746544129.0355763,1.219512,0.004392,-0.042456,15.96,-6.790000000000001,12.81,-0.494447691408533,0.052600818234950324,-0.14202220923436587
1746544129.0404444,1.187304,0.018056,-0.029768,16.59,-4.62,12.180000000000001,-0.494447691408533,0.052600818234950324,-0.14202220923436587
1746544129.0452783,1.1277679999999999,0.02684,-0.023912,17.150000000000002,-3.08,12.040000000000001,-0.494447691408533,0.052600818234950324,-0.14202220923436587
1746544129.0501466,1.113128,0.010735999999999999,-0.005856,17.71,-2.5200000000000005,12.110000000000001,-0.494447691408533,0.052600818234950324,-0.14202220923436587
1746544129.0550144,1.11752,0.0034159999999999998,-0.015616,18.270000000000003,-2.45,11.340000000000002,-0.494447691408533,0.052600818234950324,-0.14202220923436587
1746544129.059884,1.138504,-0.009271999999999999,-0.005856,18.900000000000002,-1.7500000000000002,10.360000000000001,-0.494447691408533,0.052600818234950324,-0.14202220923436587
1746544129.0654633,1.146312,-0.016104,-0.017079999999999998,19.6,-0.7000000000000001,9.450000000000001,-0.494447691408533,0.052600818234950324,-0.14202220923436587
1746544129.069618,1.133136,-0.009271999999999999,0.0053679999999999995,20.020000000000003,0.14,8.610000000000001,-0.494447691408533,0.052600818234950324,-0.14202220923436587
1746544129.0744927,1.11508,-0.013176,0.000488,20.090000000000003,-0.56,7.630000000000001,-0.494447691408533,0.052600818234950324,-0.14202220923436587
1746544129.079364,1.110688,-0.02196,0.016104,19.810000000000002,-1.1900000000000002,6.790000000000001,-0.494447691408533,0.052600818234950324,-0.14202220923436587
1746544129.0842316,1.133624,-0.022448,0.026352,19.740000000000002,-2.31,5.460000000000001,-0.494447691408533,0.052600818234950324,-0.14202220923436587
1746544129.0891006,1.183888,-0.02928,0.031232,19.67,-3.5700000000000003,3.99,-0.494447691408533,0.052600818234950324,-0.14202220923436587
1746544129.093969,1.214144,-0.030744,0.02196,19.67,-4.340000000000001,2.1,-0.494447691408533,0.052600818234950324,-0.14202220923436587
1746544129.098836,1.199016,-0.02684,0.041968,19.740000000000002,-4.2700000000000005,-1.4700000000000002,-0.494447691408533,0.052600818234950324,-0.14202220923436587
1746544129.1037078,1.188768,-0.023424,0.044896,20.37,-6.0200000000000005,-3.1500000000000004,-0.494447691408533,0.052600818234950324,-0.14202220923436587
1746544129.1085756,1.203408,-0.01952,0.05368,21.000000000000004,-6.23,-4.9,-0.494447691408533,0.052600818234950324,-0.14202220923436587
1746544129.113444,1.220976,-0.026352,0.062464,21.910000000000004,-6.65,-6.720000000000001,-0.494447691408533,0.052600818234950324,-0.14202220923436587
1746544129.119015,1.1956,-0.020007999999999998,0.046848,22.330000000000002,-6.720000000000001,-7.840000000000001,-0.494447691408533,0.052600818234950324,-0.14202220923436587
1746544129.1231863,1.1956,-0.02196,0.050752,22.680000000000003,-7.3500000000000005,-8.610000000000001,-0.494447691408533,0.052600818234950324,-0.14202220923436587
1746544129.1280792,1.204872,-0.016592,0.043432,22.96,-8.4,-9.66,-0.494447691408533,0.052600818234950324,-0.14202220923436587
1746544129.1329434,1.25172,-0.028304,0.037576,23.240000000000002,-8.89,-10.430000000000001,-0.494447691408533,0.052600818234950324,-0.14202220923436587
1746544129.1378124,1.2902719999999999,-0.033184,0.038551999999999996,23.520000000000003,-9.100000000000001,-12.040000000000001,-0.5002922267679719,0.061952074810052604,-0.12273524254821741
1746544129.1426795,1.296128,-0.025863999999999998,0.054655999999999996,23.8,-7.630000000000001,-12.81,-0.5002922267679719,0.061952074810052604,-0.12273524254821741
1746544129.147548,1.301984,-0.026352,0.08003199999999999,24.150000000000002,-6.790000000000001,-13.860000000000001,-0.5002922267679719,0.061952074810052604,-0.12273524254821741
1746544129.1524365,1.323456,-0.020496,0.091256,24.290000000000003,-6.300000000000001,-14.420000000000002,-0.5002922267679719,0.061952074810052604,-0.12273524254821741
1746544129.1572845,1.342,-0.016104,0.110776,24.150000000000002,-5.180000000000001,-14.280000000000001,-0.5002922267679719,0.061952074810052604,-0.12273524254821741
1746544129.162177,1.349808,-0.00976,0.120536,24.01,-4.340000000000001,-14.420000000000002,-0.5002922267679719,0.061952074810052604,-0.12273524254821741
1746544129.1670508,1.35664,-0.007808,0.12395199999999999,23.8,-3.1500000000000004,-14.280000000000001,-0.5002922267679719,0.061952074810052604,-0.12273524254821741
1746544129.1726377,1.343464,-0.0068319999999999995,0.124928,23.520000000000003,-2.1,-14.070000000000002,-0.5002922267679719,0.061952074810052604,-0.12273524254821741
1746544129.1767676,1.303936,0.0034159999999999998,0.13078399999999998,23.17,-1.4700000000000002,-13.860000000000001,-0.5002922267679719,0.061952074810052604,-0.12273524254821741
1746544129.1816354,1.258064,0.010735999999999999,0.12688,22.820000000000004,-1.54,-13.440000000000001,-0.5002922267679719,0.061952074810052604,-0.12273524254821741
1746544129.1865027,1.218536,0.012688,0.122,22.540000000000003,-1.8200000000000003,-12.32,-0.5002922267679719,0.061952074810052604,-0.12273524254821741
1746544129.1913736,1.187792,0.013663999999999999,0.11223999999999999,22.12,-2.5200000000000005,-11.270000000000001,-0.5002922267679719,0.061952074810052604,-0.12273524254821741
1746544129.1962416,1.152168,0.017079999999999998,0.111264,21.840000000000003,-3.3600000000000003,-10.080000000000002,-0.5002922267679719,0.061952074810052604,-0.12273524254821741
1746544129.2011118,1.1228879999999999,0.022448,0.108336,21.560000000000002,-4.48,-8.89,-0.5002922267679719,0.061952074810052604,-0.12273524254821741
1746544129.205981,1.101904,0.02196,0.111752,21.42,-5.6000000000000005,-7.700000000000001,-0.5002922267679719,0.061952074810052604,-0.12273524254821741
1746544129.21101,1.096536,0.030744,0.11223999999999999,21.21,-6.65,-4.69,-0.5002922267679719,0.061952074810052604,-0.12273524254821741
1746544129.2158265,1.101416,0.034648,0.117608,21.28,-7.700000000000001,-3.0100000000000002,-0.5002922267679719,0.061952074810052604,-0.12273524254821741
1746544129.2206368,1.113128,0.035136,0.126392,21.700000000000003,-7.5600000000000005,-1.4000000000000001,-0.5002922267679719,0.061952074810052604,-0.12273524254821741
1746544129.2262313,1.180472,0.033672,0.144936,22.12,-6.65,0.07,-0.5002922267679719,0.061952074810052604,-0.12273524254821741
1746544129.2303672,1.180472,0.033672,0.144936,22.610000000000003,-4.970000000000001,1.12,-0.5002922267679719,0.061952074810052604,-0.12273524254821741
1746544129.2352405,1.223416,0.027816,0.161528,23.17,-2.7300000000000004,1.9600000000000002,-0.5002922267679719,0.061952074810052604,-0.12273524254821741
1746544129.240105,1.299544,0.013176,0.163968,23.8,0.56,2.5900000000000003,-0.5002922267679719,0.061952074810052604,-0.12273524254821741
1746544129.2449777,1.331752,0.010248,0.162016,24.570000000000004,4.340000000000001,2.66,-0.5002922267679719,0.061952074810052604,-0.12273524254821741
1746544129.24984,1.345416,0.008296,0.172752,25.340000000000003,9.31,2.5200000000000005,-0.5002922267679719,0.061952074810052604,-0.12273524254821741
1746544129.2547095,1.3395599999999999,0.005856,0.167872,26.110000000000003,13.72,2.1700000000000004,-0.5002922267679719,0.061952074810052604,-0.12273524254821741
1746544129.259576,1.320528,0.010248,0.174704,26.950000000000003,18.41,1.8200000000000003,-0.5002922267679719,0.061952074810052604,-0.12273524254821741
1746544129.2644477,1.294176,0.011712,0.1708,27.790000000000003,22.610000000000003,1.54,-0.5002922267679719,0.061952074810052604,-0.12273524254821741
1746544129.2692862,1.253184,0.024888,0.181048,28.490000000000002,26.740000000000002,1.2600000000000002,-0.5002922267679719,0.061952074810052604,-0.12273524254821741
1746544129.274157,1.221952,0.02196,0.1708,29.050000000000004,30.1,1.4000000000000001,-0.5002922267679719,0.061952074810052604,-0.12273524254821741
1746544129.27978,1.183888,0.022935999999999998,0.17177599999999998,29.400000000000002,33.74,1.54,-0.5002922267679719,0.061952074810052604,-0.12273524254821741
1746544129.2838962,1.1326479999999999,0.022448,0.17568,29.890000000000004,36.82,1.7500000000000002,-0.5002922267679719,0.061952074810052604,-0.12273524254821741
1746544129.2887647,1.097024,0.022448,0.16348,30.660000000000004,38.57,1.8200000000000003,-0.5002922267679719,0.061952074810052604,-0.12273524254821741
