Timestamp,Accel X,Accel Y,Accel Z,Gyro X,Gyro Y,Gyro Z,Magneto X,Magneto Y,Magneto Z
1745333920.5955365,1.071221,0.05429,0.188795,-15.23375,6.492500000000001,-3.9287500000000004,-0.45542239111370947,0.042677579655071615,-0.20359543992984508
1745333920.6755784,0.9231739999999999,0.077714,0.147986,-16.091250000000002,1.4612500000000002,-5.2675,-0.45542239111370947,0.042677579655071615,-0.20359543992984508
1745333920.7556913,0.911523,0.082472,0.148108,-14.297500000000001,-8.75,-5.915000000000001,-0.45542239111370947,0.042677579655071615,-0.20359543992984508
1745333920.8357317,0.924455,0.062098,0.12895399999999999,-7.673750000000001,-12.4425,1.5050000000000001,-0.45542239111370947,0.042677579655071615,-0.20359543992984508
1745333920.915794,0.937936,0.060573,0.151524,1.1287500000000001,-0.28875,5.425000000000001,-0.45542239111370947,0.042677579655071615,-0.20359543992984508
1745333920.9958768,0.856684,0.014152,0.13480999999999999,13.755,1.435,10.00125,-0.45542239111370947,0.042677579655071615,-0.20359543992984508
1745333921.0759513,1.007415,0.062769,0.165188,23.310000000000002,-1.1375000000000002,9.047500000000001,-0.45542239111370947,0.042677579655071615,-0.20359543992984508
1745333921.1561015,1.077382,0.051667,0.174155,17.605,2.4850000000000003,-0.6300000000000001,-0.45542239111370947,0.042677579655071615,-0.20359543992984508
1745333921.2361364,1.028033,-0.036478,0.160186,12.066250000000002,1.65375,-2.8875,-0.45542239111370947,0.042677579655071615,-0.20359543992984508
1745333921.3162208,1.050176,0.05856,0.09497699999999999,13.833750000000002,-25.383750000000003,-7.3325000000000005,-0.45542239111370947,0.042677579655071615,-0.20359543992984508
1745333921.3990886,1.097451,0.142008,0.14804699999999998,14.096250000000001,-18.095000000000002,-1.5925000000000002,-0.45542239111370947,0.042677579655071615,-0.20359543992984508
1745333921.4763682,1.015955,0.063501,0.097478,2.0387500000000003,-1.4000000000000001,0.035,-0.45542239111370947,0.042677579655071615,-0.20359543992984508
1745333921.5585642,0.998692,0.06283,0.099674,0.026250000000000002,-0.043750000000000004,0.2625,-0.45542239111370947,0.042677579655071615,-0.20359543992984508
1745333921.636512,0.998082,0.06447699999999999,0.10113799999999999,-0.07,-0.07,0.3325,-0.45542239111370947,0.042677579655071615,-0.20359543992984508
1745333921.7180798,0.999607,0.064965,0.10126,-0.07875000000000001,-0.09625,0.3325,-0.45542239111370947,0.042677579655071615,-0.20359543992984508
1745333921.7966557,1.001254,0.06508699999999999,0.102236,-0.07875000000000001,-0.10500000000000001,0.32375000000000004,-0.45542239111370947,0.042677579655071615,-0.20359543992984508
1745333921.877618,1.001376,0.064599,0.102602,-0.07875000000000001,-0.09625,0.32375000000000004,-0.45542239111370947,0.042677579655071615,-0.20359543992984508
1745333921.9567993,1.001803,0.06447699999999999,0.101992,-0.08750000000000001,-0.08750000000000001,0.31500000000000006,-0.45542239111370947,0.042677579655071615,-0.20359543992984508
1745333922.0370798,1.000522,0.064843,0.101504,-0.07,-0.10500000000000001,0.31500000000000006,-0.45542239111370947,0.042677579655071615,-0.20359543992984508
1745333922.116944,1.0004,0.06508699999999999,0.101931,-0.07875000000000001,-0.11375000000000002,0.30625,-0.5080385852090032,0.08038585209003216,-0.18035662087109033
1745333922.1970098,1.0004,0.064965,0.102114,-0.061250000000000006,-0.10500000000000001,0.32375000000000004,-0.5080385852090032,0.08038585209003216,-0.18035662087109033
1745333922.2770894,1.001559,0.06478199999999999,0.10187,-0.07,-0.08750000000000001,0.31500000000000006,-0.5080385852090032,0.08038585209003216,-0.18035662087109033
1745333922.3571587,1.000705,0.064965,0.102419,-0.07,-0.10500000000000001,0.32375000000000004,-0.5080385852090032,0.08038585209003216,-0.18035662087109033
1745333922.4372344,1.000705,0.064965,0.102236,-0.07,-0.10500000000000001,0.31500000000000006,-0.5080385852090032,0.08038585209003216,-0.18035662087109033
1745333922.5173337,1.000888,0.06466,0.102358,-0.061250000000000006,-0.11375000000000002,0.32375000000000004,-0.5080385852090032,0.08038585209003216,-0.18035662087109033
1745333922.597387,1.001132,0.06527,0.102297,-0.061250000000000006,-0.11375000000000002,0.32375000000000004,-0.5080385852090032,0.08038585209003216,-0.18035662087109033
1745333922.6774862,1.000827,0.064843,0.10205299999999999,-0.061250000000000006,-0.10500000000000001,0.32375000000000004,-0.5080385852090032,0.08038585209003216,-0.18035662087109033
1745333922.7575455,1.000644,0.065148,0.102114,-0.061250000000000006,-0.09625,0.32375000000000004,-0.5080385852090032,0.08038585209003216,-0.18035662087109033
1745333922.837649,1.000949,0.065148,0.102114,-0.07,-0.09625,0.32375000000000004,-0.5080385852090032,0.08038585209003216,-0.18035662087109033
1745333922.917708,1.000949,0.064538,0.10205299999999999,-0.061250000000000006,-0.09625,0.3325,-0.5080385852090032,0.08038585209003216,-0.18035662087109033
1745333922.9978085,1.000827,0.064904,0.101931,-0.07,-0.10500000000000001,0.3325,-0.5080385852090032,0.08038585209003216,-0.18035662087109033
1745333923.0778747,1.000827,0.065209,0.10205299999999999,-0.07875000000000001,-0.09625,0.32375000000000004,-0.5080385852090032,0.08038585209003216,-0.18035662087109033
1745333923.1579769,1.001071,0.065148,0.101931,-0.07,-0.10500000000000001,0.32375000000000004,-0.5080385852090032,0.08038585209003216,-0.18035662087109033
1745333923.2380457,1.000827,0.064843,0.102114,-0.052500000000000005,-0.09625,0.31500000000000006,-0.5080385852090032,0.08038585209003216,-0.18035662087109033
1745333923.318145,1.000583,0.06466,0.10174799999999999,-0.061250000000000006,-0.09625,0.32375000000000004,-0.5080385852090032,0.08038585209003216,-0.18035662087109033
1745333923.3982124,1.000644,0.064904,0.10187,-0.061250000000000006,-0.09625,0.32375000000000004,-0.5080385852090032,0.08038585209003216,-0.18035662087109033
1745333923.4782996,1.000644,0.064965,0.101931,-0.07,-0.09625,0.31500000000000006,-0.5080385852090032,0.08038585209003216,-0.18035662087109033
1745333923.5583715,1.000888,0.06539199999999999,0.102236,-0.061250000000000006,-0.10500000000000001,0.32375000000000004,-0.5080385852090032,0.08038585209003216,-0.18035662087109033
1745333923.6384716,1.001376,0.065575,0.101687,-0.061250000000000006,-0.08750000000000001,0.31500000000000006,-0.5109617071031862,0.07307804735457468,-0.17991815258696287
1745333923.718541,0.9998509999999999,0.064904,0.102114,-0.052500000000000005,-0.10500000000000001,0.32375000000000004,-0.5109617071031862,0.07307804735457468,-0.17991815258696287
1745333923.7986357,1.002474,0.067588,0.09790499999999999,-0.11375000000000002,-0.09625,0.34125000000000005,-0.5109617071031862,0.07307804735457468,-0.17991815258696287
1745333923.8787053,1.199565,-0.054229,0.11041,-3.0187500000000003,3.535,-0.5775,-0.5109617071031862,0.07307804735457468,-0.17991815258696287
1745333923.958797,1.255685,-0.124501,0.268766,-8.260000000000002,23.091250000000002,-13.02875,-0.5109617071031862,0.07307804735457468,-0.17991815258696287
1745333924.0388687,1.203591,-0.1159,0.18727,-29.295,11.418750000000001,-27.133750000000003,-0.5109617071031862,0.07307804735457468,-0.17991815258696287
1745333924.118965,1.177239,-0.141215,0.175924,-41.518750000000004,-6.2475000000000005,-29.653750000000002,-0.5109617071031862,0.07307804735457468,-0.17991815258696287
1745333924.199035,1.12545,-0.109068,0.13237,-50.82000000000001,-2.09125,-25.462500000000002,-0.5109617071031862,0.07307804735457468,-0.17991815258696287
1745333924.2791276,1.066219,-0.07625,0.139446,-58.642500000000005,12.13625,-15.181250000000002,-0.5109617071031862,0.07307804735457468,-0.17991815258696287
1745333924.3592181,0.902129,-0.029158,0.179279,-71.00625000000001,-3.1325000000000003,1.2862500000000001,-0.5109617071031862,0.07307804735457468,-0.17991815258696287
1745333924.4392998,0.8954799999999999,-0.032695999999999996,0.190076,-70.0875,-31.307500000000005,7.577500000000001,-0.5109617071031862,0.07307804735457468,-0.17991815258696287
1745333924.5193646,0.987834,-0.031049,0.180438,-65.38875,-38.368750000000006,12.495000000000001,-0.5109617071031862,0.07307804735457468,-0.17991815258696287
1745333924.599457,0.919331,-0.003477,0.205509,-69.44875,-9.16125,18.567500000000003,-0.5109617071031862,0.07307804735457468,-0.17991815258696287
1745333924.6795545,0.81252,-0.016774999999999998,0.165127,-71.16375000000001,-2.30125,4.38375,-0.5109617071031862,0.07307804735457468,-0.17991815258696287
1745333924.7596447,0.830271,0.012627,0.164273,-68.66125000000001,-3.98125,0.8925000000000001,-0.5109617071031862,0.07307804735457468,-0.17991815258696287
1745333924.8397155,0.810202,0.048251,0.131577,-61.54750000000001,-9.38,0.10500000000000001,-0.5109617071031862,0.07307804735457468,-0.17991815258696287
1745333924.9198058,0.923357,0.043859,0.124806,-57.67125000000001,-14.927500000000002,1.0150000000000001,-0.5109617071031862,0.07307804735457468,-0.17991815258696287
1745333924.9998806,1.118313,0.049593,0.136091,-58.135000000000005,-4.112500000000001,1.5925000000000002,-0.5109617071031862,0.07307804735457468,-0.17991815258696287
1745333925.079971,1.127707,-0.0427,0.16408999999999999,-57.61000000000001,6.4662500000000005,7.630000000000001,-0.5109617071031862,0.07307804735457468,-0.17991815258696287
1745333925.1600416,1.1390529999999999,-0.045933,0.19032,-60.27,0.07,10.071250000000001,-0.5109617071031862,0.07307804735457468,-0.17991815258696287
1745333925.2401364,0.933666,0.042395,0.125721,-54.98500000000001,-9.73,8.05,-0.35895936860567085,0.0678164279450453,-0.20856474714995615
1745333925.3202069,0.844972,0.054351,0.100345,-48.072500000000005,-14.490000000000002,-8.732500000000002,-0.35895936860567085,0.0678164279450453,-0.20856474714995615
1745333925.402498,0.829539,0.016347999999999998,0.045566999999999996,-41.90375,8.60125,-14.043750000000001,-0.35895936860567085,0.0678164279450453,-0.20856474714995615
1745333925.4881213,1.085068,0.008173999999999999,0.024766,-23.843750000000004,23.493750000000002,-14.86625,-0.35895936860567085,0.0678164279450453,-0.20856474714995615
1745333925.5605133,1.1433229999999999,0.047519,0.112667,1.2512500000000002,-6.737500000000001,-10.03625,-0.35895936860567085,0.0678164279450453,-0.20856474714995615
1745333925.640632,1.1445429999999999,0.054960999999999996,0.199226,17.613750000000003,-21.53375,-6.6762500000000005,-0.35895936860567085,0.0678164279450453,-0.20856474714995615
1745333925.7206833,1.00528,0.044774,0.153354,16.1525,-15.531250000000002,4.7075000000000005,-0.35895936860567085,0.0678164279450453,-0.20856474714995615
1745333925.8007805,0.8310029999999999,0.017263,0.067283,13.291250000000002,4.4975000000000005,6.510000000000001,-0.35895936860567085,0.0678164279450453,-0.20856474714995615
1745333925.8808498,0.831979,0.024399999999999998,0.018543999999999998,10.535,16.1525,3.22,-0.35895936860567085,0.0678164279450453,-0.20856474714995615
1745333925.960948,0.930128,0.019398,0.03599,4.3925,15.618750000000002,7.857500000000001,-0.35895936860567085,0.0678164279450453,-0.20856474714995615
1745333926.0410175,1.080737,-0.009211,0.053436,-0.7525000000000001,14.708750000000002,5.223750000000001,-0.35895936860567085,0.0678164279450453,-0.20856474714995615
1745333926.1211152,1.162965,-0.075945,0.126453,-4.82125,-7.603750000000001,2.9662500000000005,-0.35895936860567085,0.0678164279450453,-0.20856474714995615
1745333926.2011833,1.140029,-0.114314,0.213927,-9.467500000000001,-23.660000000000004,-0.11375000000000002,-0.35895936860567085,0.0678164279450453,-0.20856474714995615
1745333926.2812822,1.00955,-0.081923,0.207278,-12.32,-24.05375,-12.398750000000001,-0.35895936860567085,0.0678164279450453,-0.20856474714995615
1745333926.3613536,0.826794,-0.025436999999999998,0.10553,-17.5,-6.8950000000000005,-17.9725,-0.35895936860567085,0.0678164279450453,-0.20856474714995615
1745333926.441442,0.757498,-0.008235,-0.021228,-14.63,7.017500000000001,-7.245000000000001,-0.35895936860567085,0.0678164279450453,-0.20856474714995615
1745333926.5215094,0.924821,-0.022448,0.017263,-5.932500000000001,12.3725,5.53875,-0.35895936860567085,0.0678164279450453,-0.20856474714995615
1745333926.6016226,1.13521,-0.063806,0.149389,7.017500000000001,5.477500000000001,12.013750000000002,-0.35895936860567085,0.0678164279450453,-0.20856474714995615
1745333926.68168,1.229638,0.085461,0.22478499999999998,14.708750000000002,-7.5512500000000005,-4.2525,-0.35895936860567085,0.0678164279450453,-0.20856474714995615
1745333926.7617676,1.070123,0.022387,0.156709,10.246250000000002,-20.562500000000004,-0.00875,-0.35895936860567085,0.06167787196726104,-0.2107570885705934
1745333926.8418386,0.82289,-0.054107,0.094794,10.89375,-10.84125,7.2975,-0.35895936860567085,0.06167787196726104,-0.2107570885705934
1745333926.921936,0.747006,-0.019764,-0.012688,11.935,-1.5925000000000002,11.690000000000001,-0.35895936860567085,0.06167787196726104,-0.2107570885705934
1745333927.0020075,0.8702259999999999,0.041846,-0.020007999999999998,11.086250000000001,-6.755000000000001,12.267500000000002,-0.35895936860567085,0.06167787196726104,-0.2107570885705934
1745333927.0821059,1.152534,-0.018361,0.080947,1.7062500000000003,-11.488750000000001,7.28875,-0.35895936860567085,0.06167787196726104,-0.2107570885705934
1745333927.1621723,1.175897,-0.034648,0.084546,-7.140000000000001,-12.818750000000001,-0.7962500000000001,-0.35895936860567085,0.06167787196726104,-0.2107570885705934
1745333927.2422695,1.186755,-0.172813,0.15616,-13.01125,1.4262500000000002,-4.2700000000000005,-0.35895936860567085,0.06167787196726104,-0.2107570885705934
1745333927.322341,0.9587979999999999,-0.163968,0.113643,-13.142500000000002,16.2575,-9.7125,-0.35895936860567085,0.06167787196726104,-0.2107570885705934
1745333927.4024363,0.841739,-0.117669,0.085766,-26.258750000000003,-2.205,-9.8175,-0.35895936860567085,0.06167787196726104,-0.2107570885705934
1745333927.4825227,0.713334,0.09265899999999999,0.021106,-21.5075,2.205,-1.7237500000000001,-0.35895936860567085,0.06167787196726104,-0.2107570885705934
1745333927.5625968,0.890356,-0.051667,0.018971,-10.307500000000001,20.860000000000003,-3.6050000000000004,-0.35895936860567085,0.06167787196726104,-0.2107570885705934
1745333927.6426685,1.054995,-0.054717,-0.026108,-5.76625,12.8625,-3.3775000000000004,-0.35895936860567085,0.06167787196726104,-0.2107570885705934
1745333927.7227612,1.240191,0.042395,0.139934,1.3125000000000002,-6.098750000000001,-9.721250000000001,-0.35895936860567085,0.06167787196726104,-0.2107570885705934
1745333927.8028347,1.089887,0.053924,0.178791,11.20875,3.2375000000000003,0.9887500000000001,-0.35895936860567085,0.06167787196726104,-0.2107570885705934
1745333927.882929,0.866261,-0.010065,0.114558,14.988750000000001,3.9287500000000004,12.722500000000002,-0.35895936860567085,0.06167787196726104,-0.2107570885705934
1745333927.9630036,0.755119,0.033062,0.065941,14.971250000000001,-5.74875,11.978750000000002,-0.35895936860567085,0.06167787196726104,-0.2107570885705934
1745333928.0430925,0.928542,0.091012,0.071736,5.04875,-4.366250000000001,12.967500000000001,-0.35895936860567085,0.06167787196726104,-0.2107570885705934
1745333928.1231608,1.044381,-0.019642,0.028731,-1.1025,5.53875,6.746250000000001,-0.35895936860567085,0.06167787196726104,-0.2107570885705934
1745333928.2032542,1.193953,-0.032757,0.11901099999999999,-8.74125,-10.080000000000002,-4.9175,-0.35895936860567085,0.06167787196726104,-0.2107570885705934
1745333928.2833242,1.353285,-0.174765,0.230092,-15.70625,-8.365,-10.22,-0.35895936860567085,0.06167787196726104,-0.2107570885705934
1745333928.3634205,1.098915,-0.167933,0.24509799999999998,-15.190000000000001,7.1225000000000005,5.250000000000001,-0.32271265711780184,0.07658579362759427,-0.19482607424729612
1745333928.443492,0.859856,-0.12749,0.14097099999999999,-19.7225,12.092500000000001,14.81375,-0.32271265711780184,0.07658579362759427,-0.19482607424729612
1745333928.5235856,0.701866,-0.040138,0.060085,-13.641250000000001,11.760000000000002,13.3175,-0.32271265711780184,0.07658579362759427,-0.19482607424729612
1745333928.6036541,0.747067,-0.042943999999999996,0.016287,-15.365000000000002,8.8025,10.211250000000001,-0.32271265711780184,0.07658579362759427,-0.19482607424729612
1745333928.6837459,0.9594079999999999,-0.060024,-0.03965,-15.155000000000001,-12.713750000000001,-6.116250000000001,-0.32271265711780184,0.07658579362759427,-0.19482607424729612
1745333928.7638211,1.394582,-0.039955,0.169641,-9.275,-30.423750000000002,-9.73,-0.32271265711780184,0.07658579362759427,-0.19482607424729612
1745333928.8439102,1.302533,-0.040809,0.147193,-1.7850000000000001,9.012500000000001,3.19375,-0.32271265711780184,0.07658579362759427,-0.19482607424729612
1745333928.9239838,0.808555,-0.078812,0.092903,4.20875,-14.79625,9.87875,-0.32271265711780184,0.07658579362759427,-0.19482607424729612
1745333929.0040762,0.75579,-0.084485,0.078629,11.523750000000001,-17.3075,-0.17500000000000002,-0.32271265711780184,0.07658579362759427,-0.19482607424729612
1745333929.0841463,0.8988349999999999,-0.015738,0.031354,6.790000000000001,-1.11125,4.20875,-0.32271265711780184,0.07658579362759427,-0.19482607424729612
1745333929.1642413,0.932202,-0.030805,0.06039,-8.627500000000001,5.5125,21.28875,-0.32271265711780184,0.07658579362759427,-0.19482607424729612
1745333929.2443187,1.017602,-0.095221,0.008296,-23.371250000000003,-1.1287500000000001,7.402500000000001,-0.32271265711780184,0.07658579362759427,-0.19482607424729612
1745333929.3244114,1.478823,-0.358802,0.07710399999999999,-24.797500000000003,-0.31500000000000006,-5.32875,-0.32271265711780184,0.07658579362759427,-0.19482607424729612
1745333929.4044795,0.91866,-0.147498,0.256139,-7.918750000000001,33.8975,8.793750000000001,-0.32271265711780184,0.07658579362759427,-0.19482607424729612
1745333929.4845722,1.050908,-0.182024,0.243207,-33.15375,-16.922500000000003,-2.9137500000000003,-0.32271265711780184,0.07658579362759427,-0.19482607424729612
1745333929.5646434,0.734745,-0.02745,0.013908,-44.835,-12.985000000000001,2.8437500000000004,-0.32271265711780184,0.07658579362759427,-0.19482607424729612
1745333929.6447387,0.713395,-0.03721,-0.138775,-39.34,3.1325000000000003,-7.901250000000001,-0.32271265711780184,0.07658579362759427,-0.19482607424729612
1745333929.7248063,0.863638,-0.151158,-0.131211,-24.500000000000004,6.4750000000000005,-17.036250000000003,-0.32271265711780184,0.07658579362759427,-0.19482607424729612
1745333929.8048978,1.1703459999999999,-0.10961699999999999,-0.082533,-10.736250000000002,-10.255,2.3625000000000003,-0.32271265711780184,0.07658579362759427,-0.19482607424729612
1745333929.8849683,1.299483,-0.085156,-0.051118,-0.11375000000000002,-15.811250000000001,-3.43875,-0.34463607132417423,0.13446360713241742,-0.06416252557731657
1745333929.9650593,1.2741069999999999,-0.083326,0.167079,5.3025,-16.668750000000003,-6.16875,-0.34463607132417423,0.13446360713241742,-0.06416252557731657
1745333930.045132,0.774212,-0.0034159999999999998,0.017629,18.10375,14.507500000000002,2.0300000000000002,-0.34463607132417423,0.13446360713241742,-0.06416252557731657
1745333930.1252236,0.634705,-0.034038,-0.032390999999999996,10.33375,15.566250000000002,-15.023750000000001,-0.34463607132417423,0.13446360713241742,-0.06416252557731657
1745333930.2052972,0.802333,0.020374,-0.09174399999999999,4.095000000000001,-8.65375,-10.77125,-0.34463607132417423,0.13446360713241742,-0.06416252557731657
1745333930.2853858,1.146495,-0.019275999999999998,-0.030866,-2.8875,-13.676250000000001,-8.225000000000001,-0.34463607132417423,0.13446360713241742,-0.06416252557731657
1745333930.3654568,1.332667,-0.066734,-0.035563,-7.1225000000000005,-5.73125,-5.075,-0.34463607132417423,0.13446360713241742,-0.06416252557731657
1745333930.4455523,1.212802,-0.266753,0.155306,-14.988750000000001,10.517500000000002,3.4475000000000002,-0.34463607132417423,0.13446360713241742,-0.06416252557731657
1745333930.5274076,1.014979,-0.15884399999999999,0.050935,-13.571250000000001,-0.47250000000000003,-4.4625,-0.34463607132417423,0.13446360713241742,-0.06416252557731657
1745333930.6068895,0.766343,-0.118462,0.035258,-27.0025,13.72,-8.5225,-0.34463607132417423,0.13446360713241742,-0.06416252557731657
1745333930.6890466,0.653554,-0.018422,-0.070882,-21.560000000000002,12.433750000000002,0.8662500000000001,-0.34463607132417423,0.13446360713241742,-0.06416252557731657
1745333930.7673626,0.793305,-0.038246999999999996,-0.127917,-19.153750000000002,3.99,5.2675,-0.34463607132417423,0.13446360713241742,-0.06416252557731657
1745333930.8489892,1.075369,-0.07503,-0.14249599999999998,-12.3375,-4.375,8.925,-0.34463607132417423,0.13446360713241742,-0.06416252557731657
1745333930.9261115,1.321199,-0.128161,-0.105347,7.455000000000001,-19.8625,17.622500000000002,-0.34463607132417423,0.13446360713241742,-0.06416252557731657
1745333931.0091505,1.438075,-0.09272,0.084119,11.401250000000001,-5.635000000000001,7.5687500000000005,-0.34463607132417423,0.13446360713241742,-0.06416252557731657
1745333931.086273,1.180472,-0.11468,0.160552,10.5875,-10.22,3.9987500000000002,-0.34463607132417423,0.13446360713241742,-0.06416252557731657
1745333931.16932,0.633729,-0.071431,0.01342,13.658750000000001,6.728750000000001,5.285,-0.34463607132417423,0.13446360713241742,-0.06416252557731657
1745333931.2464414,0.6886289999999999,-0.034404,-0.051972,10.920000000000002,-5.1450000000000005,1.5312500000000002,-0.34463607132417423,0.13446360713241742,-0.06416252557731657
1745333931.3295121,0.9523929999999999,-0.020007999999999998,-0.122,3.22,-10.255,-4.2,-0.34463607132417423,0.13446360713241742,-0.06416252557731657
1745333931.4066231,1.209691,-0.108397,-0.095343,-3.08,-6.580000000000001,2.2662500000000003,-0.34463607132417423,0.13446360713241742,-0.06416252557731657
1745333931.4867198,1.393606,-0.166591,-0.046787,-13.825000000000001,0.6562500000000001,7.682500000000001,-0.33382052031569714,0.14703303127740427,-0.05407775504238527
1745333931.5667875,1.070855,-0.35190899999999997,0.079849,-31.771250000000002,11.31375,-5.670000000000001,-0.33382052031569714,0.14703303127740427,-0.05407775504238527
1745333931.6468828,0.930372,-0.118462,0.04697,-18.060000000000002,0.83125,-1.2775,-0.33382052031569714,0.14703303127740427,-0.05407775504238527
1745333931.7269547,0.720471,-0.084546,-0.03782,-22.5575,9.283750000000001,0.28,-0.33382052031569714,0.14703303127740427,-0.05407775504238527
1745333931.8070505,0.7394419999999999,-0.061488,-0.076433,-12.276250000000001,10.342500000000001,-5.94125,-0.33382052031569714,0.14703303127740427,-0.05407775504238527
1745333931.887123,0.8772409999999999,-0.113216,-0.138836,-1.88125,8.30375,-5.171250000000001,-0.33382052031569714,0.14703303127740427,-0.05407775504238527
1745333931.9672205,1.199809,-0.150487,-0.090585,9.231250000000001,-4.68125,4.515000000000001,-0.33382052031569714,0.14703303127740427,-0.05407775504238527
1745333932.0472891,1.270325,-0.054717,-0.133956,17.290000000000003,-9.31,0.7087500000000001,-0.33382052031569714,0.14703303127740427,-0.05407775504238527
1745333932.1273847,1.255014,-0.134017,0.10760399999999999,6.86,-8.4875,-7.498750000000001,-0.33382052031569714,0.14703303127740427,-0.05407775504238527
1745333932.2074585,1.072929,-0.081557,0.082838,8.4875,-18.22625,1.33,-0.33382052031569714,0.14703303127740427,-0.05407775504238527
1745333932.2875593,0.6803939999999999,-0.077958,-0.045628,18.418750000000003,9.2925,1.3825,-0.33382052031569714,0.14703303127740427,-0.05407775504238527
1745333932.367627,0.783484,-0.01952,-0.11102,14.81375,0.43750000000000006,4.655,-0.33382052031569714,0.14703303127740427,-0.05407775504238527
1745333932.4477208,1.031754,-0.08204499999999999,-0.093391,1.5750000000000002,-5.486250000000001,5.76625,-0.33382052031569714,0.14703303127740427,-0.05407775504238527
1745333932.5277894,1.202981,-0.112484,-0.095404,-9.3975,-4.340000000000001,13.763750000000002,-0.33382052031569714,0.14703303127740427,-0.05407775504238527
1745333932.6078873,1.300276,-0.213195,0.061488,-28.665000000000003,17.3425,8.898750000000001,-0.33382052031569714,0.14703303127740427,-0.05407775504238527
1745333932.6879568,1.049932,-0.273768,0.036782999999999996,-22.251250000000002,12.127500000000001,-10.045000000000002,-0.33382052031569714,0.14703303127740427,-0.05407775504238527
1745333932.7680507,0.879925,-0.154147,0.020862,-3.6312500000000005,5.1625000000000005,-9.695,-0.33382052031569714,0.14703303127740427,-0.05407775504238527
1745333932.8481224,0.701317,-0.109495,-0.061549,0.1925,4.751250000000001,-6.8950000000000005,-0.33382052031569714,0.14703303127740427,-0.05407775504238527
1745333932.928219,0.73993,-0.118645,-0.11315499999999999,2.4325,0.7875000000000001,-2.19625,-0.33382052031569714,0.14703303127740427,-0.05407775504238527
1745333933.0082903,0.995764,-0.171044,-0.12486699999999999,6.405,-1.39125,3.9025000000000003,-0.34112832505115465,0.15258696287635196,-0.060947091493715286
1745333933.0883846,1.253489,-0.172508,-0.126758,12.048750000000002,-6.370000000000001,1.5137500000000002,-0.34112832505115465,0.15258696287635196,-0.060947091493715286
1745333933.1684544,1.392569,-0.123586,0.050081,-0.8925000000000001,0.49875,-4.733750000000001,-0.34112832505115465,0.15258696287635196,-0.060947091493715286
1745333933.2485487,1.115385,-0.078446,0.08003199999999999,-4.313750000000001,-9.49375,-0.46375000000000005,-0.34112832505115465,0.15258696287635196,-0.060947091493715286
1745333933.32862,0.981795,-0.075274,0.087413,5.285,-10.263750000000002,17.605,-0.34112832505115465,0.15258696287635196,-0.060947091493715286
1745333933.4087298,0.720471,-0.032085999999999996,-0.081557,16.91375,0.18375000000000002,-0.44625000000000004,-0.34112832505115465,0.15258696287635196,-0.060947091493715286
1745333933.4887836,0.940132,-0.060878,-0.075335,14.37625,-6.22125,2.5375,-0.34112832505115465,0.15258696287635196,-0.060947091493715286
1745333933.5688713,1.157841,-0.108397,-0.060878,6.772500000000001,-8.295,7.805000000000001,-0.34112832505115465,0.15258696287635196,-0.060947091493715286
1745333933.648945,1.280329,-0.183671,-0.07033299999999999,-13.037500000000001,4.59375,7.621250000000001,-0.34112832505115465,0.15258696287635196,-0.060947091493715286
1745333933.729037,1.130086,-0.318664,0.111386,-23.94,17.246250000000003,-0.14875000000000002,-0.34112832505115465,0.15258696287635196,-0.060947091493715286
1745333933.8091059,0.987346,-0.17324,0.050508,-0.805,6.0025,-8.21625,-0.34112832505115465,0.15258696287635196,-0.060947091493715286
1745333933.8891976,0.674904,-0.10376099999999999,-0.075579,-0.9975,8.3475,-6.046250000000001,-0.34112832505115465,0.15258696287635196,-0.060947091493715286
1745333933.9692726,0.73932,-0.105225,-0.068869,-0.052500000000000005,3.5875000000000004,-6.18625,-0.34112832505115465,0.15258696287635196,-0.060947091493715286
1745333934.0493636,0.925248,-0.194651,-0.103883,8.19875,-4.69,1.4525000000000001,-0.34112832505115465,0.15258696287635196,-0.060947091493715286
1745333934.1294339,1.167784,-0.2013,-0.097478,17.036250000000003,-9.738750000000001,2.63375,-0.34112832505115465,0.15258696287635196,-0.060947091493715286
1745333934.2095275,1.356152,-0.142862,0.012383,8.4875,-0.9012500000000001,-5.1450000000000005,-0.34112832505115465,0.15258696287635196,-0.060947091493715286
1745333934.2896152,1.220488,-0.120048,0.130906,-4.9350000000000005,5.3025,-7.647500000000001,-0.34112832505115465,0.15258696287635196,-0.060947091493715286
1745333934.369691,1.055361,-0.052886999999999997,0.084851,5.1537500000000005,-3.6662500000000002,6.6675,-0.34112832505115465,0.15258696287635196,-0.060947091493715286
1745333934.4497578,0.745908,-0.066368,0.054107,13.615000000000002,8.505,6.0025,-0.34112832505115465,0.15258696287635196,-0.060947091493715286
1745333934.5298493,0.671061,-0.045201,-0.025131999999999998,13.142500000000002,-12.276250000000001,-6.720000000000001,-0.34112832505115465,0.15258696287635196,-0.060947091493715286
1745333934.6099217,1.17425,-0.06831999999999999,-0.065209,3.7975000000000003,-23.126250000000002,-5.775,-0.33586670564162524,0.1414790996784566,-0.07643963753288512
1745333934.6900165,1.331996,-0.138653,-0.112972,-8.863750000000001,-22.758750000000003,3.8237500000000004,-0.33586670564162524,0.1414790996784566,-0.07643963753288512
1745333934.7700858,1.141981,-0.314943,0.102419,-28.02625,2.8875,-5.075,-0.33586670564162524,0.1414790996784566,-0.07643963753288512
1745333934.8501778,0.973438,-0.177205,0.028304,-11.97,4.2875000000000005,-8.023750000000001,-0.33586670564162524,0.1414790996784566,-0.07643963753288512
1745333934.930253,0.685518,-0.094611,-0.063867,-12.416250000000002,17.815,1.1725,-0.33586670564162524,0.1414790996784566,-0.07643963753288512
1745333935.0103457,0.689605,-0.074664,-0.092171,-12.62625,11.637500000000001,3.00125,-0.33586670564162524,0.1414790996784566,-0.07643963753288512
1745333935.0904176,0.884317,-0.125843,-0.142862,-6.195,3.5087500000000005,0.9887500000000001,-0.33586670564162524,0.1414790996784566,-0.07643963753288512
1745333935.1705248,1.158207,-0.16775,-0.09467199999999999,8.18125,-5.53875,3.6575,-0.33586670564162524,0.1414790996784566,-0.07643963753288512
1745333935.250583,1.413553,-0.058621,-0.069784,21.367500000000003,-5.188750000000001,4.47125,-0.33586670564162524,0.1414790996784566,-0.07643963753288512
1745333935.3306763,1.326506,-0.152012,0.10729899999999999,10.298750000000002,5.250000000000001,-6.921250000000001,-0.33586670564162524,0.1414790996784566,-0.07643963753288512
1745333935.410748,1.0352919999999999,-0.085095,0.056913,14.507500000000002,-8.56625,-0.043750000000000004,-0.33586670564162524,0.1414790996784566,-0.07643963753288512
1745333935.4908428,0.724619,-0.07747,0.069296,20.597500000000004,3.87625,8.190000000000001,-0.33586670564162524,0.1414790996784566,-0.07643963753288512
1745333935.5709114,0.6320209999999999,-0.034526,-0.057279,21.02625,4.2,2.21375,-0.33586670564162524,0.1414790996784566,-0.07643963753288512
1745333935.6510043,0.804285,-0.033428,-0.119499,10.33375,-5.355,5.9675,-0.33586670564162524,0.1414790996784566,-0.07643963753288512
1745333935.7310781,1.295274,-0.13450499999999999,-0.111691,0.7000000000000001,-6.41375,10.080000000000002,-0.33586670564162524,0.1414790996784566,-0.07643963753288512
1745333935.8129675,1.223233,-0.289689,0.16348,-12.888750000000002,18.488750000000003,8.75,-0.33586670564162524,0.1414790996784566,-0.07643963753288512
1745333935.8930514,1.004243,-0.177754,0.049349,1.7062500000000003,7.09625,-10.500000000000002,-0.33586670564162524,0.1414790996784566,-0.07643963753288512
1745333935.9725163,0.746091,-0.134139,0.008479,-1.9687500000000002,15.417500000000002,-13.658750000000001,-0.33586670564162524,0.1414790996784566,-0.07643963753288512
1745333936.0514507,0.697413,-0.10376099999999999,-0.055205,-1.0150000000000001,7.682500000000001,-11.068750000000001,-0.33586670564162524,0.1414790996784566,-0.07643963753288512
1745333936.1315374,0.834907,-0.153171,-0.090036,2.10875,-0.10500000000000001,-5.8012500000000005,-0.33586670564162524,0.1414790996784566,-0.07643963753288512
1745333936.2116156,1.154242,-0.16097899999999998,-0.072224,7.595000000000001,-7.927500000000001,6.956250000000001,-0.33382052031569714,0.137971353405437,-0.10333235895936861
1745333936.2917032,1.309975,-0.111996,-0.066063,9.625000000000002,-3.6837500000000003,3.6137500000000005,-0.33382052031569714,0.137971353405437,-0.10333235895936861
1745333936.3717794,1.320101,-0.093696,0.177998,-1.00625,1.1287500000000001,-5.845000000000001,-0.33382052031569714,0.137971353405437,-0.10333235895936861
1745333936.4518688,1.109285,-0.049776,0.12395199999999999,6.938750000000001,-14.35875,8.61875,-0.33382052031569714,0.137971353405437,-0.10333235895936861
1745333936.534902,0.775981,-0.058743,0.050813,11.121250000000002,4.445,8.4525,-0.33382052031569714,0.137971353405437,-0.10333235895936861
1745333936.6120274,0.6356809999999999,-0.053924,-0.018971,8.627500000000001,10.33375,-3.325,-0.33382052031569714,0.137971353405437,-0.10333235895936861
1745333936.6950872,0.772626,-0.026413,-0.085217,5.197500000000001,-4.366250000000001,-1.05875,-0.33382052031569714,0.137971353405437,-0.10333235895936861
1745333936.7721944,1.095072,-0.059597,-0.051179,-3.43875,-12.355,3.2025,-0.33382052031569714,0.137971353405437,-0.10333235895936861
1745333936.8552356,1.254099,-0.241133,0.158722,-37.02125,17.552500000000002,-0.00875,-0.33382052031569714,0.137971353405437,-0.10333235895936861
1745333936.93236,1.064511,-0.223504,0.088328,-25.427500000000002,10.5875,-7.7525,-0.33382052031569714,0.137971353405437,-0.10333235895936861
1745333937.0154014,0.796111,-0.060573,0.017446,-14.41125,15.575000000000001,-6.2387500000000005,-0.33382052031569714,0.137971353405437,-0.10333235895936861
1745333937.0925264,0.664412,-0.087108,-0.045384,-13.51875,7.227500000000001,-3.00125,-0.33382052031569714,0.137971353405437,-0.10333235895936861
1745333937.1755986,0.764635,-0.099003,-0.093635,-6.16875,-0.42000000000000004,-2.765,-0.33382052031569714,0.137971353405437,-0.10333235895936861
1745333937.2526932,1.095743,-0.15433,-0.043248999999999996,2.3975000000000004,-3.3775000000000004,1.6800000000000002,-0.33382052031569714,0.137971353405437,-0.10333235895936861
1745333937.3357522,1.315038,-0.081679,-0.081069,16.87875,-7.0875,2.1787500000000004,-0.33382052031569714,0.137971353405437,-0.10333235895936861
1745333937.4128642,1.372439,-0.053985,0.138592,1.6975000000000002,-1.7412500000000002,-5.407500000000001,-0.33382052031569714,0.137971353405437,-0.10333235895936861
1745333937.4929588,1.140517,-0.089304,0.09143899999999999,7.5512500000000005,-18.996250000000003,4.777500000000001,-0.33382052031569714,0.137971353405437,-0.10333235895936861
1745333937.573029,0.923845,-0.096136,0.11962099999999999,31.535000000000004,-5.76625,6.142500000000001,-0.33382052031569714,0.137971353405437,-0.10333235895936861
1745333937.653128,0.567178,-0.008113,-0.063928,30.065,2.19625,-2.19625,-0.33382052031569714,0.137971353405437,-0.10333235895936861
1745333937.733199,0.713395,-0.027999,-0.088633,14.673750000000002,-9.14375,-0.09625,-0.346389944460684,0.12920198772288805,-0.0932475884244373
1745333937.8132946,1.067988,-0.081923,-0.050447,10.727500000000001,-18.742500000000003,-0.5425000000000001,-0.346389944460684,0.12920198772288805,-0.0932475884244373
1745333937.893364,1.233481,-0.11406999999999999,-0.096075,1.1812500000000001,-11.165000000000001,12.888750000000002,-0.346389944460684,0.12920198772288805,-0.0932475884244373
1745333937.973462,1.111603,-0.246745,0.059475,-22.33875,4.4275,-10.062500000000002,-0.346389944460684,0.12920198772288805,-0.0932475884244373
1745333938.0535321,0.829295,-0.151402,-0.0070149999999999995,-10.71,16.87,-9.213750000000001,-0.346389944460684,0.12920198772288805,-0.0932475884244373
1745333938.1336303,0.729438,-0.07259,-0.070516,-0.47250000000000003,14.288750000000002,-4.777500000000001,-0.346389944460684,0.12920198772288805,-0.0932475884244373
1745333938.213697,0.805322,-0.106018,-0.112118,6.125000000000001,1.8025000000000002,-5.451250000000001,-0.346389944460684,0.12920198772288805,-0.0932475884244373
1745333938.293796,1.052128,-0.160613,-0.09028,11.75125,-6.816250000000001,-1.1812500000000001,-0.346389944460684,0.12920198772288805,-0.0932475884244373
1745333938.3738618,1.265018,-0.128588,-0.074298,18.130000000000003,-6.973750000000001,3.4037500000000005,-0.346389944460684,0.12920198772288805,-0.0932475884244373
1745333938.453956,1.36884,-0.101626,0.130113,9.266250000000001,-0.08750000000000001,-1.3562500000000002,-0.346389944460684,0.12920198772288805,-0.0932475884244373
1745333938.5340269,1.022238,-0.008173999999999999,0.040015999999999996,13.160000000000002,-16.35375,8.3825,-0.346389944460684,0.12920198772288805,-0.0932475884244373
1745333938.6141186,0.902861,-0.047335999999999996,0.081679,21.6125,-10.080000000000002,19.040000000000003,-0.346389944460684,0.12920198772288805,-0.0932475884244373
1745333938.694194,0.684542,-0.047397,0.003294,24.500000000000004,5.3812500000000005,4.558750000000001,-0.346389944460684,0.12920198772288805,-0.0932475884244373
1745333938.7742858,0.794342,-0.055876,-0.042212,19.223750000000003,4.760000000000001,-4.803750000000001,-0.346389944460684,0.12920198772288805,-0.0932475884244373
1745333938.8543577,0.965813,-0.078873,-0.106262,6.43125,-2.9050000000000002,-8.67125,-0.346389944460684,0.12920198772288805,-0.0932475884244373
1745333938.9344501,1.152107,-0.118462,-0.056119999999999996,-7.603750000000001,-5.643750000000001,-7.052500000000001,-0.346389944460684,0.12920198772288805,-0.0932475884244373
1745333939.0145411,1.327177,-0.164456,0.049409999999999996,-19.040000000000003,3.5612500000000002,3.19375,-0.346389944460684,0.12920198772288805,-0.0932475884244373
1745333939.094639,0.926468,-0.117547,0.056424999999999996,-24.52625,9.196250000000001,-14.000000000000002,-0.346389944460684,0.12920198772288805,-0.0932475884244373
1745333939.1747077,0.717909,-0.078385,-0.061793,-33.8275,17.185000000000002,-6.18625,-0.346389944460684,0.12920198772288805,-0.0932475884244373
1745333939.254803,0.782691,-0.07564,-0.057767,-28.446250000000003,8.207500000000001,5.468750000000001,-0.346389944460684,0.12920198772288805,-0.0932475884244373
1745333939.3348773,0.8824259999999999,-0.12017,-0.107421,-21.236250000000002,1.0762500000000002,4.296250000000001,-0.33498976907337036,0.12569424144986846,-0.09748611517100263
1745333939.4149704,1.180838,-0.14310599999999998,-0.045689,-9.94875,-5.416250000000001,9.89625,-0.33498976907337036,0.12569424144986846,-0.09748611517100263
1745333939.4950416,1.359324,-0.044225,0.024399999999999998,0.15750000000000003,5.8187500000000005,7.9975000000000005,-0.33498976907337036,0.12569424144986846,-0.09748611517100263
1745333939.5751345,1.256478,-0.060024,0.158661,-6.2125,10.141250000000001,-3.6750000000000003,-0.33498976907337036,0.12569424144986846,-0.09748611517100263
1745333939.6552055,1.099586,-0.027572,0.130845,2.33625,6.6937500000000005,6.728750000000001,-0.33498976907337036,0.12569424144986846,-0.09748611517100263
1745333939.7352972,0.7406619999999999,-0.067283,0.070882,9.7125,17.42125,-1.1725,-0.33498976907337036,0.12569424144986846,-0.09748611517100263
1745333939.8153682,0.635864,-0.03538,0.018178,14.936250000000001,8.74125,-9.59875,-0.33498976907337036,0.12569424144986846,-0.09748611517100263
1745333939.8954618,0.838262,0.002379,-0.013663999999999999,10.82375,-2.6775,-3.10625,-0.33498976907337036,0.12569424144986846,-0.09748611517100263
1745333939.97553,1.131306,0.0059169999999999995,-0.02867,3.2462500000000003,-10.246250000000002,1.61,-0.33498976907337036,0.12569424144986846,-0.09748611517100263
1745333940.0556228,1.341146,-0.10205299999999999,-0.01586,-19.17125,-6.807500000000001,-1.0237500000000002,-0.33498976907337036,0.12569424144986846,-0.09748611517100263
1745333940.1356928,1.247023,-0.263581,0.223321,-51.6075,4.83,-13.396250000000002,-0.33498976907337036,0.12569424144986846,-0.09748611517100263
1745333940.215784,0.709491,-0.068564,-0.011956,-25.051250000000003,-8.28625,2.3975000000000004,-0.33498976907337036,0.12569424144986846,-0.09748611517100263
1745333940.2958584,0.627751,-0.033489,-0.071431,-25.200000000000003,-1.4087500000000002,10.780000000000001,-0.33498976907337036,0.12569424144986846,-0.09748611517100263
1745333940.3759606,0.800503,-0.062525,-0.105042,-18.69875,-6.6937500000000005,8.828750000000001,-0.33498976907337036,0.12569424144986846,-0.09748611517100263
1745333940.4560263,1.1314279999999999,-0.075152,-0.06161,-2.7125000000000004,-11.830000000000002,10.902500000000002,-0.33498976907337036,0.12569424144986846,-0.09748611517100263
1745333940.5361164,1.324981,-0.138287,-0.099125,25.43625,-7.708750000000001,10.482500000000002,-0.33498976907337036,0.12569424144986846,-0.09748611517100263
1745333940.616188,1.27429,-0.069784,0.10577399999999999,30.1,11.690000000000001,-2.33625,-0.33498976907337036,0.12569424144986846,-0.09748611517100263
1745333940.6962824,1.242997,-0.100406,0.11834,7.446250000000001,-9.485000000000001,2.4675000000000002,-0.33498976907337036,0.12569424144986846,-0.09748611517100263
1745333940.7763548,0.8854759999999999,-0.107726,0.074359,8.662500000000001,0.8662500000000001,1.60125,-0.33498976907337036,0.12569424144986846,-0.09748611517100263
1745333940.8564448,0.549915,-0.06588,-0.031476,20.641250000000003,-0.7000000000000001,0.061250000000000006,-0.3244665302543116,0.1388482899736919,-0.07234726688102894
1745333940.9365308,0.692228,-0.007076,-0.07618899999999999,30.1,-15.785000000000002,11.672500000000001,-0.3244665302543116,0.1388482899736919,-0.07234726688102894
1745333941.0184152,0.978135,-0.030073,-0.116876,18.8475,-19.8275,14.446250000000001,-0.3244665302543116,0.1388482899736919,-0.07234726688102894
1745333941.098564,1.270508,-0.10345599999999999,-0.106506,-4.322500000000001,-6.86,7.7700000000000005,-0.3244665302543116,0.1388482899736919,-0.07234726688102894
1745333941.1779723,1.393484,-0.189222,0.133712,-16.8,24.281250000000004,1.8025000000000002,-0.3244665302543116,0.1388482899736919,-0.07234726688102894
1745333941.2568984,1.136125,-0.365939,0.136152,-2.19625,20.501250000000002,-14.708750000000002,-0.3244665302543116,0.1388482899736919,-0.07234726688102894
1745333941.3369882,0.637694,-0.13176,-0.052094,-10.946250000000001,14.14,-5.11,-0.3244665302543116,0.1388482899736919,-0.07234726688102894
1745333941.4186676,0.71309,-0.08497299999999999,-0.071675,-13.641250000000001,1.61,3.6400000000000006,-0.3244665302543116,0.1388482899736919,-0.07234726688102894
1745333941.4971476,0.960811,-0.104127,-0.12395199999999999,-9.100000000000001,-8.715000000000002,4.20875,-0.3244665302543116,0.1388482899736919,-0.07234726688102894
1745333941.578198,1.2655669999999999,-0.118462,-0.080093,5.285,-26.1275,-3.7012500000000004,-0.3244665302543116,0.1388482899736919,-0.07234726688102894
1745333941.6573088,1.237263,-0.042395,-0.076982,14.883750000000001,-20.44875,-14.455000000000002,-0.3244665302543116,0.1388482899736919,-0.07234726688102894
1745333941.7376788,1.23586,-0.040687,0.129076,3.7012500000000004,-16.266250000000003,-15.015,-0.3244665302543116,0.1388482899736919,-0.07234726688102894
1745333941.817468,1.098305,-0.022387,0.101199,14.708750000000002,-10.78875,3.1412500000000003,-0.3244665302543116,0.1388482899736919,-0.07234726688102894
1745333941.8975494,0.724192,-0.070211,-0.009271999999999999,23.861250000000002,12.67875,7.455000000000001,-0.3244665302543116,0.1388482899736919,-0.07234726688102894
1745333941.9776337,0.658068,-0.024644,-0.07356599999999999,31.255000000000003,3.6837500000000003,7.236250000000001,-0.3244665302543116,0.1388482899736919,-0.07234726688102894
1745333942.0577116,0.784277,-0.004331,-0.104249,21.93625,-9.66,19.7225,-0.3244665302543116,0.1388482899736919,-0.07234726688102894
1745333942.137794,1.158085,-0.056486,-0.036417,6.0025,-9.957500000000001,23.808750000000003,-0.3244665302543116,0.1388482899736919,-0.07234726688102894
1745333942.2178726,1.39629,-0.159515,-0.035197,-9.957500000000001,5.258750000000001,11.4975,-0.3244665302543116,0.1388482899736919,-0.07234726688102894
1745333942.2979517,1.202798,-0.330742,0.17086099999999999,-23.17875,28.910000000000004,-16.021250000000002,-0.3244665302543116,0.1388482899736919,-0.07234726688102894
1745333942.3780327,1.034011,-0.235521,0.049898,-1.3650000000000002,2.8437500000000004,-20.6675,-0.3244665302543116,0.1388482899736919,-0.07234726688102894
1745333942.4581153,0.726144,-0.11669299999999999,-0.019032,-10.648750000000001,1.3125000000000002,-14.043750000000001,-0.3270973399590763,0.12627886582870507,-0.07717041800643087
1745333942.5411344,0.801845,-0.081191,-0.117486,-11.322500000000002,-2.8175000000000003,-17.036250000000003,-0.3270973399590763,0.12627886582870507,-0.07717041800643087
1745333942.618263,1.057069,-0.070821,-0.125843,2.6775,-9.432500000000001,-7.385000000000001,-0.3270973399590763,0.12627886582870507,-0.07717041800643087
1745333942.701302,1.339072,-0.060207,-0.071736,19.258750000000003,-8.74125,4.2700000000000005,-0.3270973399590763,0.12627886582870507,-0.07717041800643087
1745333942.7784138,1.340658,0.025863999999999998,0.106018,14.166250000000002,17.535,-7.5425,-0.3270973399590763,0.12627886582870507,-0.07717041800643087
1745333942.8614666,1.188585,0.027327999999999998,0.060085,6.43125,9.3275,-7.883750000000001,-0.3270973399590763,0.12627886582870507,-0.07717041800643087
1745333942.9385695,0.916464,-0.042883,0.107787,17.578750000000003,12.232500000000002,12.328750000000001,-0.3270973399590763,0.12627886582870507,-0.07717041800643087
1745333943.021611,0.635559,-0.046055,0.021838,29.767500000000002,4.366250000000001,9.91375,-0.3270973399590763,0.12627886582870507,-0.07717041800643087
1745333943.0987217,0.714859,0.020739999999999998,-0.032574,35.55125,-20.685000000000002,11.13,-0.3270973399590763,0.12627886582870507,-0.07717041800643087
1745333943.1788173,1.016382,-0.036782999999999996,-0.14097099999999999,20.142500000000002,-37.31875,13.212500000000002,-0.3270973399590763,0.12627886582870507,-0.07717041800643087
1745333943.2588708,1.343037,-0.247111,-0.13237,-27.405,-31.386250000000004,6.0287500000000005,-0.3270973399590763,0.12627886582870507,-0.07717041800643087
1745333943.338971,1.302228,-0.36880599999999997,0.11901099999999999,-71.50500000000001,0.7087500000000001,7.51625,-0.3270973399590763,0.12627886582870507,-0.07717041800643087
1745333943.4190211,1.062864,-0.289445,0.042517,-67.6025,-2.1612500000000003,-5.3637500000000005,-0.3270973399590763,0.12627886582870507,-0.07717041800643087
1745333943.4991107,0.669353,-0.055754,-0.064294,-56.20125000000001,13.291250000000002,-7.5425,-0.3270973399590763,0.12627886582870507,-0.07717041800643087
1745333943.5791733,0.600972,0.018788,-0.096197,-46.261250000000004,15.417500000000002,-0.6212500000000001,-0.3270973399590763,0.12627886582870507,-0.07717041800643087
1745333943.659258,1.0800049999999999,-0.058987,-0.164273,-14.043750000000001,10.543750000000001,13.413750000000002,-0.3270973399590763,0.12627886582870507,-0.07717041800643087
1745333943.739324,1.283013,-0.056364,-0.153964,18.926250000000003,-3.87625,12.801250000000001,-0.3270973399590763,0.12627886582870507,-0.07717041800643087
1745333943.819411,1.417213,-0.061975999999999996,-0.0064659999999999995,20.08125,13.851250000000002,-0.043750000000000004,-0.3270973399590763,0.12627886582870507,-0.07717041800643087
1745333943.8994737,1.210667,-0.111081,0.037393,2.7125000000000004,10.561250000000001,-11.55,-0.3270973399590763,0.12627886582870507,-0.07717041800643087
1745333943.9795654,0.9472079999999999,-0.10931199999999999,0.068808,6.8425,9.6425,-1.6187500000000001,-0.30575855013154046,0.11984799766150249,0.05583162817889506
1745333944.0596242,0.595909,-0.090463,-0.048617,18.637500000000003,5.97625,4.340000000000001,-0.30575855013154046,0.11984799766150249,0.05583162817889506
1745333944.139717,0.700341,-0.02013,-0.014335,21.805000000000003,-18.3575,16.4325,-0.30575855013154046,0.11984799766150249,0.05583162817889506
1745333944.2197769,0.964105,-0.038613,0.033306,16.625,-22.995,11.5325,-0.30575855013154046,0.11984799766150249,0.05583162817889506
1745333944.299864,1.224697,-0.155489,-0.065819,12.46,-13.133750000000001,-0.43750000000000006,-0.30575855013154046,0.11984799766150249,0.05583162817889506
1745333944.3799224,1.399157,-0.268583,0.033428,-6.116250000000001,13.510000000000002,-0.43750000000000006,-0.30575855013154046,0.11984799766150249,0.05583162817889506
1745333944.4600177,1.130757,-0.47946,0.05124,-26.9675,21.236250000000002,-20.965000000000003,-0.30575855013154046,0.11984799766150249,0.05583162817889506
1745333944.5400715,0.836981,-0.114192,0.036051,-19.9675,17.001250000000002,-18.2525,-0.30575855013154046,0.11984799766150249,0.05583162817889506
1745333944.62016,0.606706,-0.060268,-0.096685,-25.40125,16.415000000000003,-10.01875,-0.30575855013154046,0.11984799766150249,0.05583162817889506
1745333944.7002227,0.726205,-0.055265999999999996,-0.117974,-17.82375,-2.31875,1.49625,-0.30575855013154046,0.11984799766150249,0.05583162817889506
1745333944.7803092,1.2330539999999999,-0.16469999999999999,-0.065758,-1.1725,-8.321250000000001,10.6575,-0.30575855013154046,0.11984799766150249,0.05583162817889506
1745333944.8603709,1.40544,0.00732,0.023912,0.39375000000000004,11.252500000000001,7.656250000000001,-0.30575855013154046,0.11984799766150249,0.05583162817889506
1745333944.94046,1.2768519999999999,-0.156709,0.122061,-19.7925,21.93625,-21.656250000000004,-0.30575855013154046,0.11984799766150249,0.05583162817889506
1745333945.020521,1.086898,-0.083631,0.110166,-3.5525,1.3125000000000002,-4.086250000000001,-0.30575855013154046,0.11984799766150249,0.05583162817889506
1745333945.1006064,0.694485,-0.104859,0.038979,7.7875000000000005,-2.3625000000000003,4.69,-0.30575855013154046,0.11984799766150249,0.05583162817889506
1745333945.1806703,0.594445,-0.032269,-0.017751,12.477500000000001,-15.435000000000002,11.777500000000002,-0.30575855013154046,0.11984799766150249,0.05583162817889506
1745333945.2607565,0.821914,0.013115,-0.063135,3.64875,-28.35,23.485000000000003,-0.30575855013154046,0.11984799766150249,0.05583162817889506
1745333945.3408182,1.141615,-0.075213,-0.065758,-10.00125,-16.47625,16.905,-0.30575855013154046,0.11984799766150249,0.05583162817889506
1745333945.420905,1.389031,-0.190076,-0.019886,-24.56125,9.94875,21.105,-0.30575855013154046,0.11984799766150249,0.05583162817889506
1745333945.5009675,1.148447,-0.355508,0.072102,-38.64875000000001,36.93375,8.846250000000001,-0.30575855013154046,0.11984799766150249,0.05583162817889506
1745333945.5810528,1.043954,-0.255895,0.078873,-24.762500000000003,10.062500000000002,-12.4425,-0.2785735165156387,0.26425021923414205,-0.07556270096463022
1745333945.661113,0.693326,-0.118828,-0.049532,-18.62,8.4175,-13.2825,-0.2785735165156387,0.26425021923414205,-0.07556270096463022
1745333945.741199,0.6317159999999999,-0.060085,-0.116815,-16.275000000000002,1.7850000000000001,-8.63625,-0.2785735165156387,0.26425021923414205,-0.07556270096463022
1745333945.8212628,0.834541,-0.12224399999999999,-0.102602,-9.922500000000001,-6.44875,-3.5962500000000004,-0.2785735165156387,0.26425021923414205,-0.07556270096463022
1745333945.9013479,1.311439,-0.15433,-0.087169,20.028750000000002,-16.73,8.793750000000001,-0.2785735165156387,0.26425021923414205,-0.07556270096463022
1745333945.9814103,1.385371,-0.13541999999999998,0.08295999999999999,17.517500000000002,1.7675,-2.1350000000000002,-0.2785735165156387,0.26425021923414205,-0.07556270096463022
1745333946.0614974,1.250134,-0.145851,0.098576,4.996250000000001,-5.13625,-4.9350000000000005,-0.2785735165156387,0.26425021923414205,-0.07556270096463022
1745333946.1415627,0.8857809999999999,-0.122366,0.07063799999999999,9.450000000000001,2.21375,-1.9250000000000003,-0.2785735165156387,0.26425021923414205,-0.07556270096463022
1745333946.2238657,0.559797,-0.083143,-0.018361,16.5375,4.987500000000001,-3.8675,-0.2785735165156387,0.26425021923414205,-0.07556270096463022
1745333946.304075,0.630008,-0.043371,-0.080764,21.93625,-11.138750000000002,11.453750000000001,-0.2785735165156387,0.26425021923414205,-0.07556270096463022
1745333946.3818293,0.980453,-0.032147,-0.090219,15.382500000000002,-24.2025,18.935000000000002,-0.2785735165156387,0.26425021923414205,-0.07556270096463022
1745333946.4624715,1.237568,-0.139446,-0.07124799999999999,-2.7212500000000004,-5.34625,0.42000000000000004,-0.2785735165156387,0.26425021923414205,-0.07556270096463022
1745333946.5419743,1.356945,-0.264618,0.007869,-19.801250000000003,22.181250000000002,-4.2787500000000005,-0.2785735165156387,0.26425021923414205,-0.07556270096463022
1745333946.6220558,1.2357989999999999,-0.43633299999999997,0.16067399999999998,-23.773750000000003,25.497500000000002,-7.358750000000001,-0.2785735165156387,0.26425021923414205,-0.07556270096463022
1745333946.702138,0.862845,-0.159942,0.020862,-6.86,15.23375,-11.628750000000002,-0.2785735165156387,0.26425021923414205,-0.07556270096463022
1745333946.7822115,0.572302,-0.058255,-0.077775,-18.1125,14.805000000000001,-4.2700000000000005,-0.2785735165156387,0.26425021923414205,-0.07556270096463022
1745333946.8622954,0.688873,-0.045689,-0.033733,-17.0625,8.575000000000001,4.15625,-0.2785735165156387,0.26425021923414205,-0.07556270096463022
1745333946.9423716,0.903532,-0.066734,-0.06527,-6.273750000000001,11.4625,2.0475000000000003,-0.2785735165156387,0.26425021923414205,-0.07556270096463022
1745333947.0224545,1.365546,-0.047885,0.020374,34.667500000000004,0.9800000000000001,-11.760000000000002,-0.2785735165156387,0.26425021923414205,-0.07556270096463022
1745333947.1025307,1.341512,-0.10797,0.220942,9.87875,-10.87625,-12.906250000000002,-0.31569716457176267,0.15931014323297282,-0.05758550131540485
1745333947.1826158,1.146129,-0.06649,0.173179,11.182500000000001,-18.57625,1.49625,-0.31569716457176267,0.15931014323297282,-0.05758550131540485
1745333947.2626894,0.669719,-0.06039,0.042395,23.038750000000004,-3.64875,8.006250000000001,-0.31569716457176267,0.15931014323297282,-0.05758550131540485
1745333947.342777,0.62525,-0.019275999999999998,0.0040869999999999995,36.39125000000001,-21.42,9.082500000000001,-0.31569716457176267,0.15931014323297282,-0.05758550131540485
1745333947.4258225,0.727669,0.061915,-0.08295999999999999,36.07625,-35.376250000000006,9.45875,-0.31569716457176267,0.15931014323297282,-0.05758550131540485
1745333947.5029423,1.139236,-0.062891,-0.029707,11.0425,-21.28,4.7162500000000005,-0.31569716457176267,0.15931014323297282,-0.05758550131540485
1745333947.585965,1.394948,-0.23247099999999998,0.015799,-5.661250000000001,2.77375,10.745000000000001,-0.31569716457176267,0.15931014323297282,-0.05758550131540485
1745333947.6631038,1.145885,-0.391681,0.152012,-16.896250000000002,31.045,2.6250000000000004,-0.31569716457176267,0.15931014323297282,-0.05758550131540485
1745333947.7461352,1.064267,-0.248636,0.117242,-7.30625,18.76,-5.97625,-0.31569716457176267,0.15931014323297282,-0.05758550131540485
1745333947.82327,0.682102,-0.127612,-0.035318999999999996,-20.25625,25.94375,-12.066250000000002,-0.31569716457176267,0.15931014323297282,-0.05758550131540485
1745333947.9063058,0.623237,-0.073017,-0.073078,-25.445000000000004,14.463750000000001,-6.825000000000001,-0.31569716457176267,0.15931014323297282,-0.05758550131540485
1745333947.983443,0.826489,-0.135664,-0.112423,-17.85875,1.4175000000000002,0.6562500000000001,-0.31569716457176267,0.15931014323297282,-0.05758550131540485
1745333948.066501,1.199504,-0.168543,-0.058438,-4.567500000000001,-16.3975,16.03875,-0.31569716457176267,0.15931014323297282,-0.05758550131540485
1745333948.143605,1.337974,-0.116144,0.132553,13.48375,2.87,-7.07875,-0.31569716457176267,0.15931014323297282,-0.05758550131540485
1745333948.226645,1.185657,-0.096136,0.120475,2.5200000000000005,-0.46375000000000005,-9.56375,-0.31569716457176267,0.15931014323297282,-0.05758550131540485
1745333948.3037748,0.825879,-0.104005,0.068076,2.8087500000000003,4.22625,-1.8462500000000002,-0.31569716457176267,0.15931014323297282,-0.05758550131540485
1745333948.3897808,0.557479,-0.081984,-0.019093,7.883750000000001,-6.0025,-3.6400000000000006,-0.31569716457176267,0.15931014323297282,-0.05758550131540485
1745333948.4639392,0.69845,-0.0068319999999999995,-0.057706,8.102500000000001,-28.148750000000003,10.211250000000001,-0.31569716457176267,0.15931014323297282,-0.05758550131540485
1745333948.544035,1.0359019999999999,-0.046116,-0.091927,-4.64625,-25.208750000000002,15.557500000000001,-0.31569716457176267,0.15931014323297282,-0.05758550131540485
1745333948.624103,1.269105,-0.18849,-0.060146,-19.985000000000003,-4.2700000000000005,18.3225,-0.31569716457176267,0.15931014323297282,-0.05758550131540485
1745333948.7041993,1.306193,-0.301279,0.09790499999999999,-33.1625,23.992500000000003,18.1125,-0.29231218941829873,0.19321835720549546,-0.01593101432329728
1745333948.7842677,1.154608,-0.36911099999999997,0.116205,-20.562500000000004,20.8775,-8.732500000000002,-0.29231218941829873,0.19321835720549546,-0.01593101432329728
1745333948.8643653,0.806847,-0.175192,-0.010553,-3.325,20.396250000000002,-17.92875,-0.29231218941829873,0.19321835720549546,-0.01593101432329728
1745333948.9444275,0.570533,-0.072712,-0.11083699999999999,-6.195,11.1125,-9.135000000000002,-0.29231218941829873,0.19321835720549546,-0.01593101432329728
1745333949.02452,0.731146,-0.117974,-0.067832,-9.231250000000001,-2.205,-2.30125,-0.29231218941829873,0.19321835720549546,-0.01593101432329728
1745333949.104578,0.99735,-0.158051,-0.115351,-1.60125,-7.525,2.1787500000000004,-0.29231218941829873,0.19321835720549546,-0.01593101432329728
1745333949.184672,1.246718,-0.173057,-0.101992,12.180000000000001,-8.65375,13.527500000000002,-0.29231218941829873,0.19321835720549546,-0.01593101432329728
1745333949.2647305,1.338889,-0.109739,0.023729,-2.6862500000000002,6.16,-7.74375,-0.29231218941829873,0.19321835720549546,-0.01593101432329728
1745333949.3448281,1.110627,-0.185867,0.166774,9.94875,5.460000000000001,7.32375,-0.29231218941829873,0.19321835720549546,-0.01593101432329728
1745333949.4248834,0.648552,-0.11406999999999999,-0.023485,29.347500000000004,0.36750000000000005,17.78875,-0.29231218941829873,0.19321835720549546,-0.01593101432329728
1745333949.5049655,0.568093,-0.059109,-0.050935,23.310000000000002,-21.21,16.275000000000002,-0.29231218941829873,0.19321835720549546,-0.01593101432329728
1745333949.58503,0.758413,-0.046116,-0.066307,3.1412500000000003,-30.450000000000003,5.845000000000001,-0.29231218941829873,0.19321835720549546,-0.01593101432329728
1745333949.6651144,1.151192,-0.156465,-0.017019,-7.358750000000001,-16.117500000000003,2.8175000000000003,-0.29231218941829873,0.19321835720549546,-0.01593101432329728
1745333949.7451763,1.387689,-0.288286,-0.016958,-9.3975,7.043750000000001,12.915000000000001,-0.29231218941829873,0.19321835720549546,-0.01593101432329728
1745333949.8252616,1.1743109999999999,-0.48470599999999997,0.155611,-18.55,29.933750000000003,-5.3025,-0.29231218941829873,0.19321835720549546,-0.01593101432329728
1745333949.905334,1.049139,-0.335561,0.116632,1.3475000000000001,12.0225,-21.297500000000003,-0.29231218941829873,0.19321835720549546,-0.01593101432329728
1745333949.9854174,0.655628,-0.17086099999999999,-0.05368,4.48,15.041250000000002,-9.59875,-0.29231218941829873,0.19321835720549546,-0.01593101432329728
1745333950.0654767,0.5964579999999999,-0.080459,-0.074115,-2.5112500000000004,10.298750000000002,-4.9,-0.29231218941829873,0.19321835720549546,-0.01593101432329728
1745333950.145574,0.8036139999999999,-0.155184,-0.08479,-6.273750000000001,1.82875,-3.8850000000000002,-0.29231218941829873,0.19321835720549546,-0.01593101432329728
1745333950.225643,1.122034,-0.184647,-0.041784999999999996,1.3825,-2.8875,1.9687500000000002,-0.29231218941829873,0.19321835720549546,-0.01593101432329728
1745333950.3057368,1.375306,-0.194834,0.003111,14.708750000000002,2.21375,0.0,-0.310143232972815,0.18152586962876352,-0.05787781350482315
1745333950.3858032,1.3620079999999999,-0.201788,0.21892899999999998,5.95875,15.793750000000001,-10.115,-0.310143232972815,0.18152586962876352,-0.05787781350482315
1745333950.4658964,0.819535,-0.133224,0.08680299999999999,14.875000000000002,-7.175000000000001,13.982500000000002,-0.310143232972815,0.18152586962876352,-0.05787781350482315
1745333950.5459633,0.576694,-0.106506,0.016897,20.48375,-16.66,12.8975,-0.310143232972815,0.18152586962876352,-0.05787781350482315
1745333950.6260521,0.659471,-0.054107,-0.033549999999999996,15.557500000000001,-31.150000000000002,10.955000000000002,-0.310143232972815,0.18152586962876352,-0.05787781350482315
1745333950.7061207,0.9946659999999999,-0.080764,-0.074298,0.525,-32.611250000000005,5.241250000000001,-0.310143232972815,0.18152586962876352,-0.05787781350482315
1745333950.78621,1.24196,-0.187697,-0.055265999999999996,-13.06375,-8.995000000000001,6.055000000000001,-0.310143232972815,0.18152586962876352,-0.05787781350482315
1745333950.8662796,1.327543,-0.331718,0.090097,-19.880000000000003,26.512500000000003,4.095000000000001,-0.310143232972815,0.18152586962876352,-0.05787781350482315
1745333950.9463685,1.106906,-0.482266,0.12322,-6.492500000000001,16.931250000000002,-5.8100000000000005,-0.310143232972815,0.18152586962876352,-0.05787781350482315
1745333951.0264394,0.8343579999999999,-0.17177599999999998,0.049593,7.367500000000001,12.871250000000002,-10.01875,-0.310143232972815,0.18152586962876352,-0.05787781350482315
1745333951.1065392,0.6110369999999999,-0.148596,-0.09143899999999999,-9.668750000000001,16.73,-12.713750000000001,-0.310143232972815,0.18152586962876352,-0.05787781350482315
1745333951.1866114,0.686128,-0.109678,-0.09943,-14.455000000000002,7.043750000000001,-6.116250000000001,-0.310143232972815,0.18152586962876352,-0.05787781350482315
1745333951.2667077,0.945744,-0.165066,-0.08174,-10.535,-1.4087500000000002,-2.0475000000000003,-0.310143232972815,0.18152586962876352,-0.05787781350482315
1745333951.348571,1.297531,-0.216062,-0.014029999999999999,10.946250000000001,-12.267500000000002,9.49375,-0.310143232972815,0.18152586962876352,-0.05787781350482315
1745333951.42804,1.390068,-0.103395,0.043127,30.056250000000002,-1.1812500000000001,-5.486250000000001,-0.310143232972815,0.18152586962876352,-0.05787781350482315
1745333951.512506,1.277279,-0.250222,0.18348799999999998,9.58125,-2.1525000000000003,2.7300000000000004,-0.310143232972815,0.18152586962876352,-0.05787781350482315
1745333951.5885172,0.626226,-0.108702,0.011529,13.755,1.0762500000000002,10.6225,-0.310143232972815,0.18152586962876352,-0.05787781350482315
1745333951.6671748,0.574193,-0.032085999999999996,-0.007503,10.40375,-11.821250000000001,12.46,-0.310143232972815,0.18152586962876352,-0.05787781350482315
1745333951.747243,0.835944,-0.043676,-0.023667999999999998,8.65375,-27.860000000000003,14.962500000000002,-0.310143232972815,0.18152586962876352,-0.05787781350482315
1745333951.8273492,1.117825,-0.093696,-0.08479,4.4887500000000005,-21.455000000000002,11.558750000000002,-0.3007892429114294,0.19614147909967847,-0.05115463314820228
1745333951.9074168,1.35359,-0.306952,-0.052704,-14.061250000000001,0.10500000000000001,1.8637500000000002,-0.3007892429114294,0.19614147909967847,-0.05115463314820228
1745333951.9875264,1.18279,-0.439017,0.113643,-34.42250000000001,19.7225,-8.540000000000001,-0.3007892429114294,0.19614147909967847,-0.05115463314820228
1745333952.0675917,1.101416,-0.395097,0.102114,-21.148750000000003,0.4025,-14.525000000000002,-0.3007892429114294,0.19614147909967847,-0.05115463314820228
1745333952.1476886,0.6466,-0.146339,-0.082838,-14.052500000000002,7.245000000000001,-11.4275,-0.3007892429114294,0.19614147909967847,-0.05115463314820228
1745333952.2277544,0.554978,-0.0549,-0.12993,-25.453750000000003,0.9362500000000001,-7.437500000000001,-0.3007892429114294,0.19614147909967847,-0.05115463314820228
1745333952.3078594,0.7259,-0.093391,-0.163602,-25.2875,0.0,-8.14625,-0.3007892429114294,0.19614147909967847,-0.05115463314820228
1745333952.3879232,1.1244129999999999,-0.102297,-0.17263,-17.0975,-0.3325,0.805,-0.3007892429114294,0.19614147909967847,-0.05115463314820228
1745333952.468015,1.4125159999999999,-0.167994,-0.011224,6.2387500000000005,-3.3950000000000005,-0.58625,-0.3007892429114294,0.19614147909967847,-0.05115463314820228
1745333952.5480862,1.379271,-0.17641199999999999,0.125538,16.59,16.1525,-14.323750000000002,-0.3007892429114294,0.19614147909967847,-0.05115463314820228
1745333952.6281736,1.1926109999999999,-0.113521,0.09455,11.121250000000002,10.2025,-9.415000000000001,-0.3007892429114294,0.19614147909967847,-0.05115463314820228
1745333952.7082436,0.618784,-0.109739,-0.022143,21.008750000000003,-3.1500000000000004,3.6312500000000005,-0.3007892429114294,0.19614147909967847,-0.05115463314820228
1745333952.7883377,0.693936,-0.028059999999999998,-0.13541999999999998,6.4662500000000005,-41.3175,2.7912500000000002,-0.3007892429114294,0.19614147909967847,-0.05115463314820228
1745333952.8684063,0.966728,0.026108,-0.084058,-8.058750000000002,-51.948750000000004,-2.10875,-0.3007892429114294,0.19614147909967847,-0.05115463314820228
1745333952.9485025,1.2211589999999999,-0.035563,-0.145363,-20.95625,-20.781250000000004,-6.6937500000000005,-0.3007892429114294,0.19614147909967847,-0.05115463314820228
1745333953.0285666,1.335839,-0.224236,-0.006771,-31.403750000000002,20.142500000000002,-0.23625000000000002,-0.3007892429114294,0.19614147909967847,-0.05115463314820228
1745333953.1086638,1.244522,-0.330498,0.072346,-16.135,15.417500000000002,-8.18125,-0.3007892429114294,0.19614147909967847,-0.05115463314820228
1745333953.188732,0.860344,-0.094489,-0.096319,2.4937500000000004,12.696250000000001,-7.603750000000001,-0.3007892429114294,0.19614147909967847,-0.05115463314820228
1745333953.268829,0.605608,-0.053619,-0.16408999999999999,-4.987500000000001,-0.36750000000000005,-7.831250000000001,-0.3007892429114294,0.19614147909967847,-0.05115463314820228
1745333953.3488996,0.722118,-0.034465,-0.10675,-8.98625,-18.567500000000003,-16.24875,-0.3007892429114294,0.19614147909967847,-0.05115463314820228
1745333953.4289856,0.931287,-0.08680299999999999,-0.17330099999999998,2.7212500000000004,-13.440000000000001,-27.702500000000004,-0.36363636363636365,0.13154048523823444,0.010815551008477054
1745333953.5090528,1.19133,-0.02379,-0.20313,18.016250000000003,-22.566250000000004,0.7087500000000001,-0.36363636363636365,0.13154048523823444,0.010815551008477054
1745333953.5891452,1.369511,0.020557,-0.154757,19.50375,-7.866250000000001,24.42125,-0.36363636363636365,0.13154048523823444,0.010815551008477054
1745333953.6692138,1.2826469999999999,-0.022753,0.015616,1.5575,8.25125,15.365000000000002,-0.36363636363636365,0.13154048523823444,0.010815551008477054
1745333953.7493052,1.056276,-0.081618,-0.044042,-0.17500000000000002,12.941250000000002,7.28875,-0.36363636363636365,0.13154048523823444,0.010815551008477054
1745333953.8293746,0.642513,-0.051422999999999996,-0.101565,12.162500000000001,-8.3475,-0.8137500000000001,-0.36363636363636365,0.13154048523823444,0.010815551008477054
1745333953.9094677,0.788669,0.023058,-0.226188,3.2375000000000003,-24.727500000000003,8.33,-0.36363636363636365,0.13154048523823444,0.010815551008477054
1745333953.9895382,1.167723,-0.055327,-0.16348,-8.54875,-20.562500000000004,20.361250000000002,-0.36363636363636365,0.13154048523823444,0.010815551008477054
1745333954.069632,1.349259,-0.180743,-0.177083,-19.040000000000003,3.64875,18.48,-0.36363636363636365,0.13154048523823444,0.010815551008477054
1745333954.1496978,1.128439,-0.294325,-0.038186,-26.180000000000003,36.79375,-0.30625,-0.36363636363636365,0.13154048523823444,0.010815551008477054
1745333954.2297902,1.052555,-0.24759899999999999,0.021045,-6.291250000000001,21.437500000000004,-13.685,-0.36363636363636365,0.13154048523823444,0.010815551008477054
1745333954.309858,0.724375,-0.074725,-0.107055,-4.64625,22.91625,-12.197500000000002,-0.36363636363636365,0.13154048523823444,0.010815551008477054
1745333954.3899534,0.63379,-0.045079,-0.175131,-9.826250000000002,13.037500000000001,-13.02875,-0.36363636363636365,0.13154048523823444,0.010815551008477054
1745333954.4700186,0.825574,-0.068747,-0.183915,-3.7362500000000005,0.30625,0.1925,-0.36363636363636365,0.13154048523823444,0.010815551008477054
1745333954.5501113,1.082506,-0.140605,-0.142923,8.05,-6.711250000000001,13.370000000000001,-0.36363636363636365,0.13154048523823444,0.010815551008477054
1745333954.6301801,1.340658,-0.12864899999999999,-0.10004,19.731250000000003,-5.565,10.298750000000002,-0.36363636363636365,0.13154048523823444,0.010815551008477054
1745333954.710275,1.352736,-0.060878,0.052826,5.836250000000001,25.90875,-15.977500000000001,-0.36363636363636365,0.13154048523823444,0.010815551008477054
1745333954.7903445,1.212192,-0.053985,0.073749,-5.871250000000001,19.31125,-13.3,-0.36363636363636365,0.13154048523823444,0.010815551008477054
1745333954.8704402,0.911706,-0.094611,0.068137,11.182500000000001,8.995000000000001,9.8,-0.36363636363636365,0.13154048523823444,0.010815551008477054
1745333954.9505332,0.662643,-0.010919,-0.035807,20.597500000000004,-18.9175,12.451250000000002,-0.33557439345220696,0.18181818181818182,-0.056562408652440804
1745333955.0306275,0.973743,-0.032085999999999996,-0.147559,-0.9187500000000001,-22.19875,9.590000000000002,-0.33557439345220696,0.18181818181818182,-0.056562408652440804
1745333955.110701,1.304851,-0.148291,-0.064599,-22.067500000000003,-16.51125,6.142500000000001,-0.33557439345220696,0.18181818181818182,-0.056562408652440804
1745333955.1908011,1.3778679999999999,-0.175497,-0.049166,-35.07,-3.8237500000000004,3.2025,-0.33557439345220696,0.18181818181818182,-0.056562408652440804
1745333955.27087,1.0854949999999999,-0.37063599999999997,0.092598,-30.135,9.668750000000001,-7.32375,-0.33557439345220696,0.18181818181818182,-0.056562408652440804
1745333955.350975,0.878522,-0.1037,0.010309,1.1025,4.296250000000001,-0.5162500000000001,-0.33557439345220696,0.18181818181818182,-0.056562408652440804
1745333955.431037,0.584746,-0.079971,-0.114558,-5.55625,20.597500000000004,-4.086250000000001,-0.33557439345220696,0.18181818181818182,-0.056562408652440804
1745333955.5111327,0.670146,-0.063867,-0.138958,-7.411250000000001,17.648750000000003,-3.6225000000000005,-0.33557439345220696,0.18181818181818182,-0.056562408652440804
1745333955.591204,0.908839,-0.10144299999999999,-0.166164,-4.077500000000001,6.83375,-0.525,-0.33557439345220696,0.18181818181818182,-0.056562408652440804
1745333955.6712844,1.277828,-0.129991,-0.043005,4.85625,1.2775,3.64875,-0.33557439345220696,0.18181818181818182,-0.056562408652440804
1745333955.7513669,1.439478,-0.078202,0.008357,9.117500000000001,20.798750000000002,-10.77125,-0.33557439345220696,0.18181818181818182,-0.056562408652440804
1745333955.831464,1.270996,-0.10699399999999999,0.140544,-4.4625,22.81125,-12.871250000000002,-0.33557439345220696,0.18181818181818182,-0.056562408652440804
1745333955.9115336,1.10227,-0.058438,0.145363,5.355,2.0475000000000003,9.49375,-0.33557439345220696,0.18181818181818182,-0.056562408652440804
1745333955.991629,0.7032079999999999,-0.076921,0.0006709999999999999,17.92875,-7.3412500000000005,15.601250000000002,-0.33557439345220696,0.18181818181818182,-0.056562408652440804
1745333956.0717497,0.6186619999999999,-0.052826,-0.025681,8.89,-29.715000000000003,11.033750000000001,-0.33557439345220696,0.18181818181818182,-0.056562408652440804
1745333956.151844,1.124047,-0.074298,-0.077287,-2.1525000000000003,-20.816250000000004,6.22125,-0.33557439345220696,0.18181818181818182,-0.056562408652440804
1745333956.2319725,1.364082,-0.221186,-0.044712999999999996,-19.1625,-5.1275,13.06375,-0.33557439345220696,0.18181818181818182,-0.056562408652440804
1745333956.3120666,1.1880359999999999,-0.398879,0.096807,-30.108750000000004,18.22625,2.24,-0.33557439345220696,0.18181818181818182,-0.056562408652440804
1745333956.3921905,1.044564,-0.240523,0.060329,-1.5137500000000002,4.165,-4.733750000000001,-0.33557439345220696,0.18181818181818182,-0.056562408652440804
1745333956.4722838,0.660508,-0.113826,-0.071919,6.0025,9.47625,1.7937500000000002,-0.33557439345220696,0.18181818181818182,-0.056562408652440804
1745333956.5523534,0.585844,-0.049958999999999996,-0.116205,1.9687500000000002,6.18625,0.17500000000000002,-0.3510669394913768,0.2829581993569132,-0.033469745688395204
1745333956.6346517,0.805627,-0.139629,-0.131882,-1.33,0.525,-7.262500000000001,-0.3510669394913768,0.2829581993569132,-0.033469745688395204
1745333956.7151482,1.1225829999999999,-0.17568,-0.082533,8.846250000000001,-5.8012500000000005,-1.155,-0.3510669394913768,0.2829581993569132,-0.033469745688395204
1745333956.7926729,1.402817,-0.15792899999999999,-0.062647,22.391250000000003,-2.4850000000000003,-3.6312500000000005,-0.3510669394913768,0.2829581993569132,-0.033469745688395204
1745333956.8727562,1.372927,-0.109983,0.139385,13.755,8.846250000000001,-8.828750000000001,-0.3510669394913768,0.2829581993569132,-0.033469745688395204
1745333956.9528458,1.210484,-0.057096,0.133529,9.975000000000001,-8.54875,0.28,-0.3510669394913768,0.2829581993569132,-0.033469745688395204
1745333957.032973,0.797758,-0.046665,0.0366,22.74125,0.5950000000000001,11.471250000000001,-0.3510669394913768,0.2829581993569132,-0.033469745688395204
1745333957.1130595,0.585234,-0.057767,0.003538,32.103750000000005,-2.44125,13.177500000000002,-0.3510669394913768,0.2829581993569132,-0.033469745688395204
1745333957.1931899,0.682346,-0.034221,-0.010187,8.898750000000001,-21.551250000000003,7.218750000000001,-0.3510669394913768,0.2829581993569132,-0.033469745688395204
1745333957.273282,1.281183,-0.171044,-0.06954,-13.02875,-1.6712500000000001,0.11375000000000002,-0.3510669394913768,0.2829581993569132,-0.033469745688395204
1745333957.3534024,1.316197,-0.276757,0.067161,-25.83875,19.258750000000003,4.768750000000001,-0.3510669394913768,0.2829581993569132,-0.033469745688395204
1745333957.4334981,1.138626,-0.402295,0.105591,-13.475000000000001,9.940000000000001,-11.777500000000002,-0.3510669394913768,0.2829581993569132,-0.033469745688395204
1745333957.516673,0.835151,-0.191601,0.000915,6.072500000000001,8.19875,-15.435000000000002,-0.3510669394913768,0.2829581993569132,-0.033469745688395204
1745333957.5936556,0.611464,-0.095465,-0.093391,-5.10125,5.78375,-7.428750000000001,-0.3510669394913768,0.2829581993569132,-0.033469745688395204
1745333957.6768203,0.698206,-0.0793,-0.105225,-14.096250000000001,0.6737500000000001,-7.437500000000001,-0.3510669394913768,0.2829581993569132,-0.033469745688395204
1745333957.75382,0.938973,-0.149694,-0.15616,-15.890000000000002,-1.88125,-6.352500000000001,-0.3510669394913768,0.2829581993569132,-0.033469745688395204
1745333957.8370059,1.26697,-0.17629,-0.032879,-2.4937500000000004,-5.9675,5.696250000000001,-0.3510669394913768,0.2829581993569132,-0.033469745688395204
1745333957.9139924,1.416664,-0.09174399999999999,0.090097,8.758750000000001,11.71625,-2.9400000000000004,-0.3510669394913768,0.2829581993569132,-0.033469745688395204
1745333957.997156,1.318637,-0.09204899999999999,0.144021,2.9225000000000003,8.863750000000001,-5.52125,-0.3510669394913768,0.2829581993569132,-0.033469745688395204
1745333958.074163,1.063108,-0.12163399999999999,0.124074,13.326250000000002,1.9862500000000003,-1.05,-0.39023677287342884,0.2081262788658287,0.026600409237065185
1745333958.1573203,0.585722,-0.064843,-0.016653,29.863750000000003,-2.42375,0.13125,-0.39023677287342884,0.2081262788658287,0.026600409237065185
1745333958.2343302,0.583709,-0.045994,-0.023851,31.342500000000005,-18.777500000000003,10.03625,-0.39023677287342884,0.2081262788658287,0.026600409237065185
1745333958.3174934,0.846253,-0.024888,-0.062342,-4.40125,-7.472500000000001,12.425,-0.39023677287342884,0.2081262788658287,0.026600409237065185
1745333958.3945165,1.422764,-0.261629,0.006039,-25.077500000000004,20.422500000000003,15.837500000000002,-0.39023677287342884,0.2081262788658287,0.026600409237065185
1745333958.4806027,1.1228879999999999,-0.428159,0.087596,-29.986250000000002,25.681250000000002,1.715,-0.39023677287342884,0.2081262788658287,0.026600409237065185
1745333958.5546734,0.9594079999999999,-0.209718,0.057888999999999996,-4.9437500000000005,-0.21875000000000003,-7.420000000000001,-0.39023677287342884,0.2081262788658287,0.026600409237065185
1745333958.634767,0.652273,-0.142252,-0.070089,-9.992500000000001,2.765,-7.796250000000001,-0.39023677287342884,0.2081262788658287,0.026600409237065185
1745333958.714838,0.629276,-0.073993,-0.112362,-13.326250000000002,-2.1525000000000003,-4.20875,-0.39023677287342884,0.2081262788658287,0.026600409237065185
1745333958.7949333,0.8328329999999999,-0.155428,-0.1464,-12.59125,-5.0925,-2.6162500000000004,-0.39023677287342884,0.2081262788658287,0.026600409237065185
1745333958.8750014,1.12545,-0.18873399999999999,-0.074664,-0.805,-9.51125,7.97125,-0.39023677287342884,0.2081262788658287,0.026600409237065185
1745333958.9550862,1.3745129999999999,-0.143045,-0.029036,12.232500000000002,5.678750000000001,-1.7412500000000002,-0.39023677287342884,0.2081262788658287,0.026600409237065185
1745333959.0351634,1.405562,-0.196664,0.170434,2.7300000000000004,21.000000000000004,-11.13,-0.39023677287342884,0.2081262788658287,0.026600409237065185
1745333959.1152487,1.166564,-0.176839,0.123098,6.580000000000001,3.2812500000000004,-6.62375,-0.39023677287342884,0.2081262788658287,0.026600409237065185
1745333959.1953251,0.740906,-0.157563,0.038551999999999996,23.633750000000003,-0.5950000000000001,5.005000000000001,-0.39023677287342884,0.2081262788658287,0.026600409237065185
1745333959.2754116,0.567971,-0.08418,-0.021106,30.275000000000002,-15.925,8.776250000000001,-0.39023677287342884,0.2081262788658287,0.026600409237065185
1745333959.3554916,0.707112,-0.047640999999999996,-0.067222,22.400000000000002,-28.341250000000002,12.547500000000001,-0.39023677287342884,0.2081262788658287,0.026600409237065185
1745333959.4355862,1.093974,-0.101626,-0.025193,1.05,-18.40125,11.856250000000001,-0.39023677287342884,0.2081262788658287,0.026600409237065185
1745333959.515652,1.187548,-0.414373,0.123769,-44.40625000000001,41.825,5.9675,-0.39023677287342884,0.2081262788658287,0.026600409237065185
1745333959.5957444,1.111359,-0.349835,0.07869,-22.63625,23.485000000000003,-14.857500000000002,-0.39023677287342884,0.2081262788658287,0.026600409237065185
1745333959.675817,0.7403569999999999,-0.135481,-0.035258,-12.22375,17.92,-12.985000000000001,-0.3262204033908214,0.17129494299912307,-0.029231218941829874
1745333959.75591,0.60939,-0.103212,-0.049409999999999996,-19.565,1.4875,-10.867500000000001,-0.3262204033908214,0.17129494299912307,-0.029231218941829874
1745333959.835982,0.72285,-0.117669,-0.078446,-20.580000000000002,-5.57375,-8.82,-0.3262204033908214,0.17129494299912307,-0.029231218941829874
1745333959.9160783,1.007598,-0.16897,-0.067283,-16.17,-1.5225000000000002,-1.00625,-0.3262204033908214,0.17129494299912307,-0.029231218941829874
1745333959.9961486,1.317539,-0.158295,-0.015493999999999999,1.3562500000000002,-1.8725000000000003,9.205,-0.3262204033908214,0.17129494299912307,-0.029231218941829874
1745333960.0762277,1.370182,-0.086925,0.112728,7.577500000000001,20.9475,8.006250000000001,-0.3262204033908214,0.17129494299912307,-0.029231218941829874
1745333960.156306,1.273375,-0.143045,0.188673,-3.21125,12.048750000000002,-11.401250000000001,-0.3262204033908214,0.17129494299912307,-0.029231218941829874
1745333960.2363913,1.05164,-0.149755,0.109861,9.56375,7.7700000000000005,-5.696250000000001,-0.3262204033908214,0.17129494299912307,-0.029231218941829874
1745333960.3164797,0.615551,-0.059841,0.003965,30.476250000000004,-2.89625,1.2600000000000002,-0.3262204033908214,0.17129494299912307,-0.029231218941829874
1745333960.3965487,0.640805,0.010492,0.063806,39.611250000000005,-31.587500000000002,1.44375,-0.3262204033908214,0.17129494299912307,-0.029231218941829874
1745333960.4766266,0.759328,0.044835,-0.005612,30.966250000000002,-35.9275,-8.28625,-0.3262204033908214,0.17129494299912307,-0.029231218941829874
1745333960.5567253,1.179252,-0.08295999999999999,-0.000793,4.095000000000001,-5.52125,-16.4325,-0.3262204033908214,0.17129494299912307,-0.029231218941829874
1745333960.6368003,1.222501,-0.4575,0.199409,0.18375000000000002,21.192500000000003,4.742500000000001,-0.3262204033908214,0.17129494299912307,-0.029231218941829874
1745333960.7168877,0.9067649999999999,-0.146034,0.137433,23.8,6.527500000000001,2.1525000000000003,-0.3262204033908214,0.17129494299912307,-0.029231218941829874
1745333960.796957,0.584624,-0.118462,-0.033062,-4.64625,11.821250000000001,-6.39625,-0.3262204033908214,0.17129494299912307,-0.029231218941829874
1745333960.8770468,0.614148,-0.0732,-0.056181,-19.687500000000004,2.7912500000000002,-6.492500000000001,-0.3262204033908214,0.17129494299912307,-0.029231218941829874
1745333960.9571204,0.949221,-0.14865699999999998,-0.082228,-19.81875,-5.241250000000001,-0.28,-0.3262204033908214,0.17129494299912307,-0.029231218941829874
1745333961.0372052,1.255075,-0.194407,0.012688,-3.7362500000000005,-18.13875,22.688750000000002,-0.3262204033908214,0.17129494299912307,-0.029231218941829874
1745333961.11727,1.544886,-0.046482,0.178913,16.37125,-9.02125,14.568750000000001,-0.3262204033908214,0.17129494299912307,-0.029231218941829874
1745333961.1973586,1.300947,-0.133712,0.206119,8.916250000000002,5.915000000000001,-9.870000000000001,-0.3262204033908214,0.17129494299912307,-0.029231218941829874
1745333961.2774239,1.043649,-0.090951,0.17208099999999998,13.877500000000001,2.87,-5.52125,-0.32885121309558607,0.14644840689856767,-0.07234726688102894
1745333961.3575156,0.589504,-0.090829,0.007686,18.970000000000002,3.5175000000000005,-2.9400000000000004,-0.32885121309558607,0.14644840689856767,-0.07234726688102894
1745333961.437574,0.552233,-0.076067,-0.008845,20.562500000000004,-14.743750000000002,4.550000000000001,-0.32885121309558607,0.14644840689856767,-0.07234726688102894
1745333961.517666,0.828014,-0.015738,-0.03965,11.576250000000002,-31.718750000000004,17.797500000000003,-0.32885121309558607,0.14644840689856767,-0.07234726688102894
1745333961.597732,1.21939,-0.091073,0.009821,-7.74375,-22.7325,18.50625,-0.32885121309558607,0.14644840689856767,-0.07234726688102894
1745333961.677822,1.338889,-0.226737,0.025071,-28.087500000000002,4.550000000000001,11.55,-0.32885121309558607,0.14644840689856767,-0.07234726688102894
1745333961.7605796,1.054141,-0.250161,0.150853,8.07625,13.51875,-6.930000000000001,-0.32885121309558607,0.14644840689856767,-0.07234726688102894
1745333961.8380153,0.664229,-0.125782,-0.032390999999999996,7.95375,25.935000000000002,-4.165,-0.32885121309558607,0.14644840689856767,-0.07234726688102894
1745333961.919622,0.613233,-0.071919,-0.065697,-8.3825,16.520000000000003,-7.07,-0.32885121309558607,0.14644840689856767,-0.07234726688102894
1745333961.9981558,0.841495,-0.149511,-0.076128,-13.685,-3.7012500000000004,-10.85875,-0.32885121309558607,0.14644840689856767,-0.07234726688102894
1745333962.0791364,1.130391,-0.171532,-0.046787,-7.621250000000001,-17.797500000000003,-4.235,-0.32885121309558607,0.14644840689856767,-0.07234726688102894
1745333962.158318,1.34505,-0.141215,0.035685,9.012500000000001,-19.74875,1.77625,-0.32885121309558607,0.14644840689856767,-0.07234726688102894
1745333962.2386458,1.411052,-0.120963,0.260104,8.3475,3.3950000000000005,-2.5375,-0.32885121309558607,0.14644840689856767,-0.07234726688102894
1745333962.3184946,1.192367,-0.086559,0.146705,3.7450000000000006,-0.28,-1.7412500000000002,-0.32885121309558607,0.14644840689856767,-0.07234726688102894
1745333962.404198,0.831369,-0.09991799999999999,0.090524,7.5075,9.117500000000001,1.93375,-0.32885121309558607,0.14644840689856767,-0.07234726688102894
1745333962.4786305,0.57157,-0.065575,-0.004148,19.88875,0.5687500000000001,5.50375,-0.32885121309558607,0.14644840689856767,-0.07234726688102894
1745333962.5587265,0.671793,0.017629,-0.010126,25.970000000000002,-24.080000000000002,18.1475,-0.32885121309558607,0.14644840689856767,-0.07234726688102894
1745333962.63878,0.953125,-0.024583,-0.053924,11.33125,-29.723750000000003,12.8275,-0.32885121309558607,0.14644840689856767,-0.07234726688102894
1745333962.718875,1.285636,-0.204655,0.003111,-6.86,-5.258750000000001,10.64,-0.32885121309558607,0.14644840689856767,-0.07234726688102894
1745333962.7989333,1.367559,-0.350567,0.196298,-17.3775,36.435,17.42125,-0.3045893013738673,0.17889505992399882,-0.07366267173341129
1745333962.8790274,0.828319,-0.171288,0.105835,-0.32375000000000004,20.133750000000003,-10.342500000000001,-0.3045893013738673,0.17889505992399882,-0.07366267173341129
1745333962.959081,0.617991,-0.11834,-0.014213,-20.212500000000002,16.82625,-14.017500000000002,-0.3045893013738673,0.17889505992399882,-0.07366267173341129
1745333963.0391788,0.654835,-0.098454,-0.062159,-22.977500000000003,0.43750000000000006,-9.992500000000001,-0.3045893013738673,0.17889505992399882,-0.07366267173341129
1745333963.1192303,0.94306,-0.159271,-0.052277,-14.656250000000002,-6.86,-3.5787500000000003,-0.3045893013738673,0.17889505992399882,-0.07366267173341129
1745333963.1993344,1.28222,-0.180377,0.002013,1.32125,-9.2925,7.525,-0.3045893013738673,0.17889505992399882,-0.07366267173341129
1745333963.2793946,1.49999,-0.159576,0.20227599999999998,19.0575,3.64875,-4.62,-0.3045893013738673,0.17889505992399882,-0.07366267173341129
1745333963.3595006,1.261236,-0.171715,0.239913,18.856250000000003,-2.765,-7.840000000000001,-0.3045893013738673,0.17889505992399882,-0.07366267173341129
1745333963.439584,1.003938,-0.134261,0.190076,18.0075,-5.32,4.1825,-0.3045893013738673,0.17889505992399882,-0.07366267173341129
1745333963.519667,0.601277,-0.105225,0.017506999999999998,19.9325,0.5425000000000001,5.836250000000001,-0.3045893013738673,0.17889505992399882,-0.07366267173341129
1745333963.5997317,0.598959,-0.050386,-0.002074,21.840000000000003,-14.367500000000001,13.632500000000002,-0.3045893013738673,0.17889505992399882,-0.07366267173341129
1745333963.6798162,0.878827,-0.057034999999999995,-0.007076,9.467500000000001,-32.322500000000005,15.137500000000001,-0.3045893013738673,0.17889505992399882,-0.07366267173341129
1745333963.759881,1.177727,-0.157258,0.046176999999999996,-9.73,-21.560000000000002,7.192500000000001,-0.3045893013738673,0.17889505992399882,-0.07366267173341129
1745333963.8399663,1.337303,-0.319091,0.048983,-29.7325,6.6675,5.8187500000000005,-0.3045893013738673,0.17889505992399882,-0.07366267173341129
1745333963.9200277,1.106418,-0.496967,0.141154,-38.377500000000005,24.587500000000002,-0.9450000000000001,-0.3045893013738673,0.17889505992399882,-0.07366267173341129
1745333964.000118,1.065853,-0.300486,0.12254899999999999,-9.56375,6.405,-0.17500000000000002,-0.3045893013738673,0.17889505992399882,-0.07366267173341129
1745333964.080175,0.58194,-0.074603,-0.080398,-12.127500000000001,-8.811250000000001,1.155,-0.3045893013738673,0.17889505992399882,-0.07366267173341129
1745333964.1602714,0.7783599999999999,-0.164273,-0.101687,-13.133750000000001,-13.755,-4.26125,-0.3045893013738673,0.17889505992399882,-0.07366267173341129
1745333964.240332,1.118191,-0.218136,-0.048739,-3.99,-7.06125,-3.7975000000000003,-0.3045893013738673,0.17889505992399882,-0.07366267173341129
1745333964.320418,1.399523,-0.178608,0.010431,7.420000000000001,14.297500000000001,-9.082500000000001,-0.3045893013738673,0.17889505992399882,-0.07366267173341129
1745333964.40048,1.4219709999999999,-0.227774,0.263215,5.241250000000001,32.7775,-16.44125,-0.31365097924583457,0.16954106986261328,-0.07322420344928383
1745333964.4805746,1.169309,-0.15451299999999998,0.163419,19.67875,21.227500000000003,-9.336250000000001,-0.31365097924583457,0.16954106986261328,-0.07322420344928383
1745333964.560631,0.739686,-0.134078,0.078263,29.653750000000002,10.508750000000001,5.013750000000001,-0.31365097924583457,0.16954106986261328,-0.07322420344928383
1745333964.640731,0.518927,-0.086437,6.1e-05,35.42,-13.877500000000001,7.577500000000001,-0.31365097924583457,0.16954106986261328,-0.07322420344928383
1745333964.7207837,0.704611,-0.036417,0.00244,23.747500000000002,-34.658750000000005,10.815000000000001,-0.31365097924583457,0.16954106986261328,-0.07322420344928383
1745333964.8008695,1.087752,-0.102663,0.014579,-2.4937500000000004,-30.975,10.543750000000001,-0.31365097924583457,0.16954106986261328,-0.07322420344928383
1745333964.8809328,1.30113,-0.265533,0.046787,-29.102500000000003,-0.08750000000000001,9.54625,-0.31365097924583457,0.16954106986261328,-0.07322420344928383
1745333964.9610167,1.224697,-0.401258,0.144265,-44.45,28.341250000000002,0.27125000000000005,-0.31365097924583457,0.16954106986261328,-0.07322420344928383
1745333965.0410764,1.155157,-0.360571,0.155489,-25.628750000000004,18.235000000000003,-5.075,-0.31365097924583457,0.16954106986261328,-0.07322420344928383
1745333965.1211662,0.7427969999999999,-0.14274,0.029951,-11.4275,23.371250000000003,-4.24375,-0.31365097924583457,0.16954106986261328,-0.07322420344928383
1745333965.201239,0.732488,-0.080215,-0.096136,-21.962500000000002,-6.107500000000001,-5.6000000000000005,-0.31365097924583457,0.16954106986261328,-0.07322420344928383
1745333965.281326,1.064572,-0.184281,-0.010919,-16.493750000000002,-8.881250000000001,-3.8150000000000004,-0.31365097924583457,0.16954106986261328,-0.07322420344928383
1745333965.3613863,1.3194299999999999,-0.18117,0.06447699999999999,8.006250000000001,-0.6737500000000001,-5.8012500000000005,-0.31365097924583457,0.16954106986261328,-0.07322420344928383
1745333965.4414704,1.415322,-0.12688,0.236558,19.285,26.250000000000004,-12.293750000000001,-0.31365097924583457,0.16954106986261328,-0.07322420344928383
1745333965.5215344,1.333216,-0.108397,0.262727,24.911250000000003,17.080000000000002,-12.005,-0.31365097924583457,0.16954106986261328,-0.07322420344928383
1745333965.6016297,0.917623,-0.114802,0.156892,36.855000000000004,9.7125,-2.5025000000000004,-0.31365097924583457,0.16954106986261328,-0.07322420344928383
1745333965.6817033,0.535336,-0.105591,0.028364999999999998,40.22375,-5.53875,0.31500000000000006,-0.31365097924583457,0.16954106986261328,-0.07322420344928383
1745333965.7617934,0.584502,-0.034343,0.014274,38.185,-34.16875,14.875000000000002,-0.31365097924583457,0.16954106986261328,-0.07322420344928383
1745333965.841865,0.950441,-0.036844,-0.000732,19.652500000000003,-48.23875,26.486250000000002,-0.31365097924583457,0.16954106986261328,-0.07322420344928383
1745333965.9219532,1.249463,-0.187453,0.045933,-2.2225,-28.218750000000004,21.988750000000003,-0.3215434083601286,0.17421806489330605,-0.06270096463022508
1745333966.002028,1.397693,-0.322019,0.156465,-21.962500000000002,8.53125,10.526250000000001,-0.3215434083601286,0.17421806489330605,-0.06270096463022508
1745333966.0821164,1.0732949999999999,-0.447618,0.162016,-25.051250000000003,16.2575,-5.78375,-0.3215434083601286,0.17421806489330605,-0.06270096463022508
1745333966.1621888,0.937997,-0.166469,0.168543,-3.2725000000000004,18.891250000000003,-7.000000000000001,-0.3215434083601286,0.17421806489330605,-0.06270096463022508
1745333966.2422807,0.553697,-0.113216,-0.047275,-19.153750000000002,34.30875,-6.571250000000001,-0.3215434083601286,0.17421806489330605,-0.06270096463022508
1745333966.3223515,0.907558,-0.162321,-0.02745,-19.433750000000003,8.207500000000001,-2.0650000000000004,-0.3215434083601286,0.17421806489330605,-0.06270096463022508
1745333966.4024417,1.275449,-0.221796,0.093391,-2.65125,0.43750000000000006,5.687500000000001,-0.3215434083601286,0.17421806489330605,-0.06270096463022508
1745333966.482524,1.480653,-0.116937,0.207888,13.545000000000002,12.250000000000002,-5.932500000000001,-0.3215434083601286,0.17421806489330605,-0.06270096463022508
1745333966.5626082,1.334863,-0.124989,0.309697,6.83375,6.545000000000001,-14.402500000000002,-0.3215434083601286,0.17421806489330605,-0.06270096463022508
1745333966.6426842,1.147776,-0.105713,0.259494,15.697500000000002,-10.902500000000002,-0.9625000000000001,-0.3215434083601286,0.17421806489330605,-0.06270096463022508
1745333966.7227776,0.669963,-0.090585,0.096868,32.471250000000005,-18.488750000000003,8.63625,-0.3215434083601286,0.17421806489330605,-0.06270096463022508
1745333966.8028538,0.575413,-0.046604,0.050996,40.67875,-41.74625,16.91375,-0.3215434083601286,0.17421806489330605,-0.06270096463022508
1745333966.8847399,0.762439,-0.013115,-0.020007999999999998,33.713750000000005,-58.52875,22.645000000000003,-0.3215434083601286,0.17421806489330605,-0.06270096463022508
1745333966.9630272,1.142774,-0.099674,-0.018178,17.4125,-48.39625,27.1075,-0.3215434083601286,0.17421806489330605,-0.06270096463022508
1745333967.0431077,1.29625,-0.257176,-0.013542,-4.3925,-12.81,13.571250000000001,-0.3215434083601286,0.17421806489330605,-0.06270096463022508
1745333967.1231866,1.094767,-0.401258,0.100284,-13.623750000000001,25.3575,-11.856250000000001,-0.3215434083601286,0.17421806489330605,-0.06270096463022508
1745333967.20328,1.060119,-0.316956,0.062403,9.8175,9.301250000000001,-15.863750000000001,-0.3215434083601286,0.17421806489330605,-0.06270096463022508
1745333967.28335,0.762927,-0.139629,-0.0059169999999999995,16.966250000000002,11.873750000000001,-13.7375,-0.3215434083601286,0.17421806489330605,-0.06270096463022508
1745333967.3634448,0.682468,-0.08906,-0.113399,11.812500000000002,-6.4575000000000005,-13.413750000000002,-0.3215434083601286,0.17421806489330605,-0.06270096463022508
1745333967.4457777,1.053043,-0.197518,-0.134932,17.395000000000003,-28.245,-0.14875000000000002,-0.3215434083601286,0.17421806489330605,-0.06270096463022508
1745333967.523602,1.290943,-0.19428499999999999,-0.126209,27.378750000000004,-20.090000000000003,0.30625,-0.349313066354867,0.14089447529962,-0.0586085939783689
1745333967.605291,1.346331,-0.122793,0.058011,16.28375,6.571250000000001,-16.336250000000003,-0.349313066354867,0.14089447529962,-0.0586085939783689
1745333967.6837564,1.211094,-0.066307,0.038613,4.87375,-0.6300000000000001,-7.621250000000001,-0.349313066354867,0.14089447529962,-0.0586085939783689
1745333967.7648177,0.844118,-0.096014,0.014579,14.420000000000002,7.455000000000001,3.4037500000000005,-0.349313066354867,0.14089447529962,-0.0586085939783689
1745333967.8439188,0.590419,-0.030805,-0.040931,25.086250000000003,6.01125,0.39375000000000004,-0.349313066354867,0.14089447529962,-0.0586085939783689
1745333967.9243183,0.759389,0.032695999999999996,-0.09943,26.582500000000003,-17.08875,-2.0300000000000002,-0.349313066354867,0.14089447529962,-0.0586085939783689
1745333968.004074,1.05835,-0.040504,-0.17177599999999998,30.415000000000003,-29.723750000000003,-5.888750000000001,-0.349313066354867,0.14089447529962,-0.0586085939783689
1745333968.0841496,1.216096,-0.16683499999999998,-0.176961,26.372500000000002,-18.637500000000003,-0.5075000000000001,-0.349313066354867,0.14089447529962,-0.0586085939783689
1745333968.16423,1.279231,-0.249368,-0.013786,4.235,10.736250000000002,4.550000000000001,-0.349313066354867,0.14089447529962,-0.0586085939783689
1745333968.2443087,1.077443,-0.30658599999999997,0.037576,-5.1275,7.09625,10.508750000000001,-0.349313066354867,0.14089447529962,-0.0586085939783689
1745333968.3243928,0.852536,-0.117364,-0.004575,-6.8425,11.760000000000002,-6.4575000000000005,-0.349313066354867,0.14089447529962,-0.0586085939783689
1745333968.4044657,0.669719,-0.10431,-0.114802,-18.40125,19.1625,-12.22375,-0.349313066354867,0.14089447529962,-0.0586085939783689
1745333968.484554,0.716689,-0.077043,-0.147925,-12.62625,9.3975,-3.8150000000000004,-0.349313066354867,0.14089447529962,-0.0586085939783689
1745333968.5675867,1.229455,-0.16561499999999998,-0.145241,12.13625,-8.776250000000001,11.97,-0.349313066354867,0.14089447529962,-0.0586085939783689
1745333968.644733,1.4862039999999999,-0.041479999999999996,0.040138,20.676250000000003,2.3712500000000003,-8.811250000000001,-0.349313066354867,0.14089447529962,-0.0586085939783689
1745333968.727786,1.286795,-0.042638999999999996,0.038551999999999996,14.507500000000002,-1.8462500000000002,-11.025,-0.349313066354867,0.14089447529962,-0.0586085939783689
1745333968.804867,0.9937509999999999,-0.019886,0.046238,29.977500000000003,-0.63875,-3.3075,-0.349313066354867,0.14089447529962,-0.0586085939783689
1745333968.8878992,0.62647,-0.046543,0.005429,43.032500000000006,9.10875,-4.961250000000001,-0.349313066354867,0.14089447529962,-0.0586085939783689
1745333968.9650154,0.5924929999999999,-0.042822,-0.051606,47.17125000000001,-3.8587500000000006,-2.5725000000000002,-0.349313066354867,0.14089447529962,-0.0586085939783689
1745333969.0480528,0.846741,-0.007686,-0.135359,42.612500000000004,-18.453750000000003,1.9687500000000002,-0.35808243203741597,0.05057000876936568,-0.12686349020754165
1745333969.125169,1.142347,-0.050263999999999996,-0.13572499999999998,23.905,-17.4475,2.33625,-0.35808243203741597,0.05057000876936568,-0.12686349020754165
1745333969.2082095,1.414285,-0.195871,-0.022875,4.375,2.2925000000000004,-5.635000000000001,-0.35808243203741597,0.05057000876936568,-0.12686349020754165
1745333969.2853286,1.178215,-0.287737,0.21533,-3.0450000000000004,25.602500000000003,-7.32375,-0.35808243203741597,0.05057000876936568,-0.12686349020754165
1745333969.3683937,1.064816,-0.170983,0.180682,-3.5612500000000002,14.621250000000002,-13.405000000000001,-0.35808243203741597,0.05057000876936568,-0.12686349020754165
1745333969.445481,0.750056,-0.11163,0.008113,-25.50625,28.306250000000002,-30.03,-0.35808243203741597,0.05057000876936568,-0.12686349020754165
1745333969.5255632,0.665998,-0.076677,-0.060756,-43.715,14.691250000000002,-23.17875,-0.35808243203741597,0.05057000876936568,-0.12686349020754165
1745333969.605635,0.818559,-0.120841,-0.083692,-50.338750000000005,-1.3475000000000001,-13.291250000000002,-0.35808243203741597,0.05057000876936568,-0.12686349020754165
1745333969.6857321,1.316319,-0.038551999999999996,-0.023729,-39.042500000000004,-10.00125,8.9075,-0.35808243203741597,0.05057000876936568,-0.12686349020754165
1745333969.7657962,1.40605,0.044347,0.214781,-52.36000000000001,14.586250000000001,-5.775,-0.35808243203741597,0.05057000876936568,-0.12686349020754165
1745333969.8458936,1.212131,0.052704,0.13176,-57.45250000000001,5.416250000000001,5.8100000000000005,-0.35808243203741597,0.05057000876936568,-0.12686349020754165
1745333969.925958,0.890051,-0.056242,0.09851499999999999,-43.7325,12.311250000000001,15.916250000000002,-0.35808243203741597,0.05057000876936568,-0.12686349020754165
1745333970.0060532,0.597739,-0.055570999999999995,-0.028243,-22.216250000000002,-2.3712500000000003,12.381250000000001,-0.35808243203741597,0.05057000876936568,-0.12686349020754165
1745333970.0861242,0.660813,0.056608,-0.036173,-14.691250000000002,-22.47875,22.688750000000002,-0.35808243203741597,0.05057000876936568,-0.12686349020754165
1745333970.1662219,1.000461,0.012078,-0.050813,-24.4125,-16.79125,20.545,-0.35808243203741597,0.05057000876936568,-0.12686349020754165
1745333970.2462904,1.2266489999999999,-0.136457,-0.031171,-32.7425,-2.89625,19.915000000000003,-0.35808243203741597,0.05057000876936568,-0.12686349020754165
1745333970.326391,1.393057,-0.287127,0.127429,-40.118750000000006,16.423750000000002,14.350000000000001,-0.35808243203741597,0.05057000876936568,-0.12686349020754165
1745333970.4065423,1.152351,-0.379725,0.109068,-29.093750000000004,12.538750000000002,-6.790000000000001,-0.35808243203741597,0.05057000876936568,-0.12686349020754165
1745333970.486635,0.804407,-0.105469,0.031659,-19.41625,14.79625,-3.7975000000000003,-0.35808243203741597,0.05057000876936568,-0.12686349020754165
1745333970.5667064,0.580354,-0.075091,-0.084363,-36.4525,15.015,-3.42125,-0.35808243203741597,0.05057000876936568,-0.12686349020754165
1745333970.6467974,0.653127,-0.109434,-0.104615,-35.831250000000004,4.89125,-3.1675000000000004,-0.3273896521484946,0.1625255773165741,-0.031423560362467115
1745333970.7268672,0.969839,-0.143167,-0.114375,-24.508750000000003,-4.8825,10.57,-0.3273896521484946,0.1625255773165741,-0.031423560362467115
1745333970.8069587,1.275815,-0.2135,0.09436699999999999,7.245000000000001,18.59375,-7.95375,-0.3273896521484946,0.1625255773165741,-0.031423560362467115
1745333970.8870327,1.233176,-0.139324,0.13115,-8.776250000000001,22.146250000000002,-24.858750000000004,-0.3273896521484946,0.1625255773165741,-0.031423560362467115
1745333970.9671264,1.106174,-0.095648,0.146583,-4.48,10.027500000000002,-14.778750000000002,-0.3273896521484946,0.1625255773165741,-0.031423560362467115
1745333971.0471961,0.718397,-0.106323,0.088328,13.492500000000001,5.197500000000001,-3.42125,-0.3273896521484946,0.1625255773165741,-0.031423560362467115
1745333971.1272895,0.587552,-0.026168999999999998,0.024888,29.268750000000004,-12.24125,4.296250000000001,-0.3273896521484946,0.1625255773165741,-0.031423560362467115
1745333971.2073636,0.769698,0.004331,-0.019154,22.312500000000004,-26.180000000000003,18.418750000000003,-0.3273896521484946,0.1625255773165741,-0.031423560362467115
1745333971.2874558,1.194807,-0.038979,0.02501,7.5600000000000005,-21.945000000000004,22.137500000000003,-0.3273896521484946,0.1625255773165741,-0.031423560362467115
1745333971.367525,1.421788,-0.188856,0.072224,-1.9162500000000002,7.358750000000001,16.852500000000003,-0.3273896521484946,0.1625255773165741,-0.031423560362467115
1745333971.4476206,1.142774,-0.363865,0.172203,2.7125000000000004,28.192500000000003,0.7612500000000001,-0.3273896521484946,0.1625255773165741,-0.031423560362467115
1745333971.527686,0.998753,-0.271267,0.144631,20.895000000000003,-4.777500000000001,-6.378750000000001,-0.3273896521484946,0.1625255773165741,-0.031423560362467115
1745333971.607778,0.671061,-0.131028,0.051727999999999996,5.451250000000001,1.4262500000000002,-10.508750000000001,-0.3273896521484946,0.1625255773165741,-0.031423560362467115
1745333971.6878505,0.638853,-0.112301,-0.007076,-6.545000000000001,3.7625,-11.488750000000001,-0.3273896521484946,0.1625255773165741,-0.031423560362467115
1745333971.7679543,0.804285,-0.142557,-0.086681,-3.5875000000000004,2.3712500000000003,-5.477500000000001,-0.3273896521484946,0.1625255773165741,-0.031423560362467115
1745333971.8480225,1.098366,-0.190625,-0.034038,1.9075000000000002,-2.9225000000000003,6.3875,-0.3273896521484946,0.1625255773165741,-0.031423560362467115
1745333971.928597,1.394094,-0.158661,0.090036,14.551250000000001,9.065000000000001,-8.63625,-0.3273896521484946,0.1625255773165741,-0.031423560362467115
1745333972.0100248,1.184437,-0.029828999999999998,0.168726,-6.83375,-4.865,-0.49000000000000005,-0.3273896521484946,0.1625255773165741,-0.031423560362467115
1745333972.088351,0.891393,-0.086315,0.151707,9.8,-5.3637500000000005,8.645000000000001,-0.3273896521484946,0.1625255773165741,-0.031423560362467115
1745333972.1684177,0.602863,-0.084119,0.049471,31.535000000000004,-13.195000000000002,6.43125,-0.3051739257527039,0.17743349897690733,-0.07351651563870214
1745333972.2485063,0.619028,-0.01098,-0.007503,36.16375,-25.856250000000003,19.01375,-0.3051739257527039,0.17743349897690733,-0.07351651563870214
1745333972.3285737,0.976061,-0.056669,0.030317,24.648750000000003,-15.531250000000002,23.65125,-0.3051739257527039,0.17743349897690733,-0.07351651563870214
1745333972.4086633,1.261175,-0.200629,0.013176,1.6800000000000002,8.575000000000001,15.312500000000002,-0.3051739257527039,0.17743349897690733,-0.07351651563870214
1745333972.4887242,1.35298,-0.33183999999999997,0.216916,-28.087500000000002,32.87375,-3.5700000000000003,-0.3051739257527039,0.17743349897690733,-0.07351651563870214
1745333972.568806,1.081774,-0.362706,0.166591,-9.205,14.455000000000002,-17.01875,-0.3051739257527039,0.17743349897690733,-0.07351651563870214
1745333972.648878,0.835151,-0.129625,0.17177599999999998,13.361250000000002,2.9925,-7.857500000000001,-0.3051739257527039,0.17743349897690733,-0.07351651563870214
1745333972.728966,0.626226,-0.113338,-0.009577,-0.45500000000000007,3.1587500000000004,-15.610000000000001,-0.3051739257527039,0.17743349897690733,-0.07351651563870214
1745333972.8119965,0.7163229999999999,-0.112179,-0.040138,-7.052500000000001,1.7937500000000002,-16.082500000000003,-0.3051739257527039,0.17743349897690733,-0.07351651563870214
1745333972.8891096,0.992043,-0.199531,-0.096197,-4.45375,-5.171250000000001,1.1462500000000002,-0.3051739257527039,0.17743349897690733,-0.07351651563870214
1745333972.9721541,1.264408,-0.210755,0.022082,13.06375,-15.653750000000002,23.493750000000002,-0.3051739257527039,0.17743349897690733,-0.07351651563870214
1745333973.04927,1.39446,-0.061488,0.196481,13.125000000000002,-1.60125,1.7587500000000003,-0.3051739257527039,0.17743349897690733,-0.07351651563870214
1745333973.1323178,1.075186,-0.099491,0.170434,6.781250000000001,-2.2837500000000004,-6.9125000000000005,-0.3051739257527039,0.17743349897690733,-0.07351651563870214
1745333973.2094274,0.671061,-0.130662,0.031659,26.46,-2.9487500000000004,1.8725000000000003,-0.3051739257527039,0.17743349897690733,-0.07351651563870214
1745333973.2924664,0.6134769999999999,-0.068747,-0.019459,28.411250000000003,-23.6075,12.468750000000002,-0.3051739257527039,0.17743349897690733,-0.07351651563870214
1745333973.3696022,0.824842,-0.051545,-0.019581,5.862500000000001,-34.667500000000004,20.7375,-0.3051739257527039,0.17743349897690733,-0.07351651563870214
1745333973.4526215,1.212558,-0.12871,0.027877,-15.312500000000002,-16.922500000000003,11.655000000000001,-0.3051739257527039,0.17743349897690733,-0.07351651563870214
1745333973.5297425,1.438868,-0.278526,0.072712,-22.96,19.24125,10.92875,-0.3051739257527039,0.17743349897690733,-0.07351651563870214
1745333973.6098332,1.099586,-0.448899,0.12132899999999999,-17.360000000000003,31.097500000000004,5.608750000000001,-0.3051739257527039,0.17743349897690733,-0.07351651563870214
1745333973.6899028,0.937387,-0.200385,0.124989,-5.11,6.711250000000001,2.6862500000000002,-0.3051739257527039,0.17743349897690733,-0.07351651563870214
1745333973.7699988,0.649101,-0.153049,-0.027145,-27.090000000000003,10.981250000000001,-10.307500000000001,-0.30985092078339666,0.16720257234726688,-0.05597778427360421
1745333973.8500638,0.629581,-0.086742,-0.063074,-31.246250000000003,6.055000000000001,-7.140000000000001,-0.30985092078339666,0.16720257234726688,-0.05597778427360421
1745333973.9301605,0.812703,-0.139507,-0.094489,-24.3075,1.8462500000000002,-3.0362500000000003,-0.30985092078339666,0.16720257234726688,-0.05597778427360421
1745333974.010227,1.156377,-0.185196,-0.032147,-6.921250000000001,-1.9775000000000003,4.7250000000000005,-0.30985092078339666,0.16720257234726688,-0.05597778427360421
1745333974.090322,1.437709,-0.093696,0.033977,14.79625,3.7887500000000003,-1.8987500000000002,-0.30985092078339666,0.16720257234726688,-0.05597778427360421
1745333974.1703882,1.279353,-0.135786,0.160491,7.192500000000001,21.813750000000002,-15.47,-0.30985092078339666,0.16720257234726688,-0.05597778427360421
1745333974.250496,0.780617,-0.113948,0.106445,33.5825,3.6662500000000002,8.4525,-0.30985092078339666,0.16720257234726688,-0.05597778427360421
1745333974.330548,0.552782,-0.079544,0.070577,41.30875,-6.18625,10.071250000000001,-0.30985092078339666,0.16720257234726688,-0.05597778427360421
1745333974.4106393,0.677893,-0.024339,0.104493,41.133750000000006,-7.9887500000000005,13.326250000000002,-0.30985092078339666,0.16720257234726688,-0.05597778427360421
1745333974.490705,1.04493,-0.066551,0.040382,20.48375,6.43125,12.013750000000002,-0.30985092078339666,0.16720257234726688,-0.05597778427360421
1745333974.5707927,1.341451,-0.195261,0.083387,-17.841250000000002,19.67875,-5.57375,-0.30985092078339666,0.16720257234726688,-0.05597778427360421
1745333974.6508582,1.355237,-0.410042,0.295545,-24.543750000000003,18.672500000000003,-3.3862500000000004,-0.30985092078339666,0.16720257234726688,-0.05597778427360421
1745333974.7309453,0.985821,-0.289994,0.374784,20.238750000000003,11.103750000000002,-4.313750000000001,-0.30985092078339666,0.16720257234726688,-0.05597778427360421
1745333974.8110123,0.7351719999999999,-0.125294,0.181292,14.1925,25.130000000000003,-20.335,-0.30985092078339666,0.16720257234726688,-0.05597778427360421
1745333974.8910995,0.627995,-0.081191,0.011956,-6.378750000000001,5.643750000000001,-19.258750000000003,-0.30985092078339666,0.16720257234726688,-0.05597778427360421
1745333974.9711623,0.775371,-0.10083299999999999,-0.016409,-8.9425,-7.638750000000001,-13.492500000000001,-0.30985092078339666,0.16720257234726688,-0.05597778427360421
1745333975.0512543,0.997472,-0.116876,0.054534,6.39625,-14.498750000000001,2.9137500000000003,-0.30985092078339666,0.16720257234726688,-0.05597778427360421
1745333975.1313229,1.364875,-0.106628,0.200873,31.491250000000004,-20.597500000000004,8.443750000000001,-0.30985092078339666,0.16720257234726688,-0.05597778427360421
1745333975.21142,1.395741,-0.040443,0.378749,32.322500000000005,5.74,-13.177500000000002,-0.30985092078339666,0.16720257234726688,-0.05597778427360421
1745333975.2914946,1.242082,-0.02867,0.279685,8.58375,1.6887500000000002,-15.30375,-0.30985092078339666,0.16720257234726688,-0.05597778427360421
1745333975.3715777,0.546194,-0.079239,0.102785,26.468750000000004,-2.0650000000000004,5.1625000000000005,-0.3168664133294358,0.08301666179479684,-0.17012569424144988
1745333975.4516377,0.589992,0.011163,0.074908,22.96,-21.28875,21.5425,-0.3168664133294358,0.08301666179479684,-0.17012569424144988
1745333975.5317247,1.036756,-0.038674,0.060085,-7.612500000000001,-24.220000000000002,19.27625,-0.3168664133294358,0.08301666179479684,-0.17012569424144988
1745333975.6117883,1.271606,-0.132309,0.085766,-30.747500000000002,-7.262500000000001,16.8,-0.3168664133294358,0.08301666179479684,-0.17012569424144988
1745333975.6918776,1.350418,-0.26413,0.321897,-47.005,18.40125,9.537500000000001,-0.3168664133294358,0.08301666179479684,-0.17012569424144988
1745333975.7719417,1.127585,-0.369294,0.276635,-35.3325,10.5875,-3.19375,-0.3168664133294358,0.08301666179479684,-0.17012569424144988
1745333975.8520281,0.817278,-0.150487,0.199409,-20.536250000000003,8.321250000000001,-11.690000000000001,-0.3168664133294358,0.08301666179479684,-0.17012569424144988
1745333975.9320903,0.56913,-0.115412,-0.000549,-40.08375,4.5062500000000005,-17.946250000000003,-0.3168664133294358,0.08301666179479684,-0.17012569424144988
1745333976.0121806,0.676185,-0.071919,-0.016165,-43.767500000000005,0.58625,-12.722500000000002,-0.3168664133294358,0.08301666179479684,-0.17012569424144988
1745333976.092243,0.9514779999999999,-0.14005599999999999,-0.022753,-35.1925,5.10125,-4.8475,-0.3168664133294358,0.08301666179479684,-0.17012569424144988
1745333976.1723363,1.241411,-0.17793699999999998,0.069601,-11.410000000000002,-10.981250000000001,11.996250000000002,-0.3168664133294358,0.08301666179479684,-0.17012569424144988
1745333976.2523966,1.398181,-0.031537,0.181475,-2.2662500000000003,-0.8400000000000001,-0.37625000000000003,-0.3168664133294358,0.08301666179479684,-0.17012569424144988
1745333976.3324833,1.298568,-0.085095,0.279197,-14.857500000000002,8.67125,-18.086250000000003,-0.3168664133294358,0.08301666179479684,-0.17012569424144988
1745333976.4125469,1.123437,-0.08723,0.20435,0.385,4.6375,-2.66,-0.3168664133294358,0.08301666179479684,-0.17012569424144988
1745333976.4926343,0.554612,-0.069723,0.067588,23.003750000000004,-15.513750000000002,23.896250000000002,-0.3168664133294358,0.08301666179479684,-0.17012569424144988
1745333976.5726974,0.748653,-0.023424,0.00549,11.690000000000001,-34.86000000000001,29.91625,-0.3168664133294358,0.08301666179479684,-0.17012569424144988
1745333976.652782,1.120082,-0.052643,0.050691,-4.2,-22.942500000000003,25.3575,-0.3168664133294358,0.08301666179479684,-0.17012569424144988
1745333976.732844,1.432463,-0.252357,0.146339,-16.4675,6.8950000000000005,11.655000000000001,-0.3168664133294358,0.08301666179479684,-0.17012569424144988
1745333976.8129487,1.134417,-0.484645,0.260897,-5.06625,32.9525,-7.918750000000001,-0.3168664133294358,0.08301666179479684,-0.17012569424144988
1745333976.8930159,0.998875,-0.306037,0.182634,18.200000000000003,4.9262500000000005,-8.09375,-0.29201987722888045,0.1631102016954107,-0.10128617363344052
1745333976.9731078,0.7080879999999999,-0.177144,0.08912099999999999,-9.826250000000002,10.2025,-15.30375,-0.29201987722888045,0.1631102016954107,-0.10128617363344052
1745333977.0549529,0.630984,-0.093513,0.000793,-25.060000000000002,9.773750000000001,-17.036250000000003,-0.29201987722888045,0.1631102016954107,-0.10128617363344052
1745333977.135021,0.7625,-0.14518,-0.008784,-25.235000000000003,12.040000000000001,-12.13625,-0.29201987722888045,0.1631102016954107,-0.10128617363344052
1745333977.2145095,1.050603,-0.177876,0.021289,-13.48375,10.05375,0.9712500000000001,-0.29201987722888045,0.1631102016954107,-0.10128617363344052
1745333977.2934554,1.3395599999999999,-0.183305,0.153537,2.12625,3.9200000000000004,7.656250000000001,-0.29201987722888045,0.1631102016954107,-0.10128617363344052
1745333977.3735197,1.392874,-0.111264,0.328912,-8.058750000000002,20.18625,-14.35875,-0.29201987722888045,0.1631102016954107,-0.10128617363344052
1745333977.4536169,1.214205,-0.079361,0.28133199999999997,-8.82,8.592500000000001,-9.353750000000002,-0.29201987722888045,0.1631102016954107,-0.10128617363344052
1745333977.5366416,0.920307,-0.081923,0.20752199999999998,13.623750000000001,-3.8850000000000002,15.557500000000001,-0.29201987722888045,0.1631102016954107,-0.10128617363344052
1745333977.6137838,0.626653,-0.056913,0.122671,29.898750000000003,-31.788750000000004,27.781250000000004,-0.29201987722888045,0.1631102016954107,-0.10128617363344052
1745333977.6968129,0.8982249999999999,-0.09638,0.09113399999999999,10.605,-31.710000000000004,20.798750000000002,-0.29201987722888045,0.1631102016954107,-0.10128617363344052
1745333977.773958,1.2278689999999999,-0.205875,0.058377,-4.4275,-14.936250000000001,15.5225,-0.29201987722888045,0.1631102016954107,-0.10128617363344052
1745333977.857016,1.42679,-0.394243,0.244549,-8.828750000000001,2.9137500000000003,13.728750000000002,-0.29201987722888045,0.1631102016954107,-0.10128617363344052
1745333977.9341311,0.996435,-0.520879,0.19337,-0.7962500000000001,2.23125,-9.31,-0.29201987722888045,0.1631102016954107,-0.10128617363344052
1745333978.0171766,0.812581,-0.268034,0.176656,1.0850000000000002,-6.39625,-7.376250000000001,-0.29201987722888045,0.1631102016954107,-0.10128617363344052
1745333978.094304,0.594384,-0.148413,0.005246,-21.490000000000002,2.44125,-15.181250000000002,-0.29201987722888045,0.1631102016954107,-0.10128617363344052
1745333978.1773424,0.678259,-0.113948,-0.020984,-25.602500000000003,8.916250000000002,-16.65125,-0.29201987722888045,0.1631102016954107,-0.10128617363344052
1745333978.2545066,0.8614419999999999,-0.183427,-0.033367,-17.141250000000003,14.700000000000001,-14.79625,-0.29201987722888045,0.1631102016954107,-0.10128617363344052
1745333978.337513,1.135881,-0.22539499999999998,-0.014884,-4.103750000000001,6.8775,-0.7350000000000001,-0.29201987722888045,0.1631102016954107,-0.10128617363344052
1745333978.4147305,1.344562,-0.139568,0.10113799999999999,5.486250000000001,12.853750000000002,-8.356250000000001,-0.29201987722888045,0.1631102016954107,-0.10128617363344052
1745333978.4947588,1.3830529999999999,-0.139812,0.308599,-6.755000000000001,19.775000000000002,-20.685000000000002,-0.31394329143525285,0.14878690441391407,-0.09280912014030986
1745333978.574824,1.247206,-0.11773,0.309087,5.495,9.607500000000002,-20.44,-0.31394329143525285,0.14878690441391407,-0.09280912014030986
1745333978.6549246,0.7640859999999999,-0.120963,0.131516,21.97125,6.18625,4.313750000000001,-0.31394329143525285,0.14878690441391407,-0.09280912014030986
1745333978.7349908,0.549549,-0.089609,0.066551,29.163750000000004,-21.656250000000004,36.907500000000006,-0.31394329143525285,0.14878690441391407,-0.09280912014030986
1745333978.8150933,0.974353,-0.062586,0.096075,6.44,-13.238750000000001,30.493750000000002,-0.31394329143525285,0.14878690441391407,-0.09280912014030986
1745333978.8951592,1.259406,-0.246074,0.13298,-25.042500000000004,4.952500000000001,-5.55625,-0.31394329143525285,0.14878690441391407,-0.09280912014030986
1745333978.9752622,1.3644479999999999,-0.43615,0.326106,-30.808750000000003,13.55375,-20.76375,-0.31394329143525285,0.14878690441391407,-0.09280912014030986
1745333979.0553334,1.1256329999999999,-0.376492,0.195444,10.412500000000001,-7.98,-18.051250000000003,-0.31394329143525285,0.14878690441391407,-0.09280912014030986
1745333979.1354394,0.745969,-0.056913,0.15677,21.192500000000003,0.63875,-6.973750000000001,-0.31394329143525285,0.14878690441391407,-0.09280912014030986
1745333979.215513,0.541009,-0.100406,0.013176,-12.20625,13.580000000000002,-15.618750000000002,-0.31394329143525285,0.14878690441391407,-0.09280912014030986
1745333979.2956173,0.7339519999999999,-0.095038,-0.014884,-22.968750000000004,10.228750000000002,-15.793750000000001,-0.31394329143525285,0.14878690441391407,-0.09280912014030986
1745333979.375684,1.034926,-0.163297,-0.015616,-18.926250000000003,-1.7587500000000003,-7.74375,-0.31394329143525285,0.14878690441391407,-0.09280912014030986
1745333979.4557903,1.307962,-0.180194,0.104005,6.072500000000001,-15.557500000000001,2.7125000000000004,-0.31394329143525285,0.14878690441391407,-0.09280912014030986
1745333979.5358627,1.428437,-0.054839,0.286395,6.553750000000001,-3.5962500000000004,-0.7350000000000001,-0.31394329143525285,0.14878690441391407,-0.09280912014030986
1745333979.6159537,1.1776659999999999,-0.020618,0.22106399999999998,-11.628750000000002,-1.6625,-11.8825,-0.31394329143525285,0.14878690441391407,-0.09280912014030986
1745333979.6960278,1.083482,-0.066734,0.203679,5.32875,1.7412500000000002,4.9,-0.31394329143525285,0.14878690441391407,-0.09280912014030986
1745333979.7761247,0.665327,-0.074725,0.11315499999999999,44.24875,-3.0275000000000003,15.111250000000002,-0.31394329143525285,0.14878690441391407,-0.09280912014030986
1745333979.856193,0.576389,-0.057767,0.018605,52.85875000000001,-28.09625,23.922500000000003,-0.31394329143525285,0.14878690441391407,-0.09280912014030986
1745333979.9362905,1.124596,-0.091683,0.021106,-1.4875,-32.8125,22.77625,-0.31394329143525285,0.14878690441391407,-0.09280912014030986
1745333980.0163584,1.39629,-0.246867,0.11956,-26.398750000000003,0.9187500000000001,-6.16875,-0.31335866705641624,0.16866413329435836,-0.0678164279450453
1745333980.096458,1.18157,-0.42334,0.208864,-25.523750000000003,28.507500000000004,-43.60125000000001,-0.31335866705641624,0.16866413329435836,-0.0678164279450453
1745333980.176527,0.945744,-0.192272,0.132004,6.88625,14.420000000000002,-20.746250000000003,-0.31335866705641624,0.16866413329435836,-0.0678164279450453
1745333980.2566276,0.652761,-0.10315099999999999,0.011956,-8.60125,26.661250000000003,-2.3800000000000003,-0.31335866705641624,0.16866413329435836,-0.0678164279450453
1745333980.3366933,0.656421,-0.051972,-0.040015999999999996,-26.215000000000003,20.343750000000004,-6.518750000000001,-0.31335866705641624,0.16866413329435836,-0.0678164279450453
1745333980.4167902,0.886025,-0.098088,-0.089243,-26.0575,8.391250000000001,-9.406250000000002,-0.31335866705641624,0.16866413329435836,-0.0678164279450453
1745333980.4968536,1.144177,-0.139812,0.033672,-9.213750000000001,-1.1287500000000001,4.17375,-0.31335866705641624,0.16866413329435836,-0.0678164279450453
1745333980.5769427,1.46278,-0.072895,0.147864,6.352500000000001,-2.1525000000000003,7.2975,-0.31335866705641624,0.16866413329435836,-0.0678164279450453
1745333980.6570103,1.281915,-0.049227,0.267485,-3.3512500000000003,6.01125,-9.012500000000001,-0.31335866705641624,0.16866413329435836,-0.0678164279450453
1745333980.7371016,1.208532,-0.0070149999999999995,0.196786,-0.20125,-14.446250000000001,-1.0237500000000002,-0.31335866705641624,0.16866413329435836,-0.0678164279450453
1745333980.817166,0.806725,-0.03965,0.11773,18.786250000000003,-9.686250000000001,8.977500000000001,-0.31335866705641624,0.16866413329435836,-0.0678164279450453
1745333980.8972592,0.587125,-0.024704999999999998,0.02745,33.057500000000005,-12.565000000000001,11.270000000000001,-0.31335866705641624,0.16866413329435836,-0.0678164279450453
1745333980.9773293,0.7044279999999999,0.013969,0.038491,29.583750000000002,-28.017500000000002,22.767500000000002,-0.31335866705641624,0.16866413329435836,-0.0678164279450453
1745333981.057429,1.181875,-0.093513,0.005856,9.668750000000001,-0.9187500000000001,6.2125,-0.31335866705641624,0.16866413329435836,-0.0678164279450453
1745333981.1375043,1.333887,-0.32574,0.17238599999999998,0.49875,22.085,3.7800000000000002,-0.31335866705641624,0.16866413329435836,-0.0678164279450453
