Timestamp,Accel X,Accel Y,Accel Z,Gyro X,Gyro Y,Gyro Z,Magneto X,Magneto Y,Magneto Z
1745337432.4135098,0.321592,-0.064904,0.126392,460.25000000000006,-238.49,-649.985,-0.32704953967558087,0.104340201665936,-0.2748794388426129
1745337432.4935493,0.830576,-0.049288,0.224236,-87.745,-313.425,275.52000000000004,-0.32704953967558087,0.104340201665936,-0.2748794388426129
1745337432.5736492,1.021384,0.028791999999999998,0.174948,-7.840000000000001,0.07,-11.55,-0.32704953967558087,0.104340201665936,-0.2748794388426129
1745337432.6537178,1.0462719999999999,0.007076,0.2623,11.200000000000001,-16.485000000000003,-7.000000000000001,-0.32704953967558087,0.104340201665936,-0.2748794388426129
1745337432.7337863,1.278804,0.020739999999999998,0.281088,36.085,-35.385000000000005,8.785,-0.32704953967558087,0.104340201665936,-0.2748794388426129
1745337432.81388,1.114836,0.051972,0.226188,40.915000000000006,-7.595000000000001,13.510000000000002,-0.32704953967558087,0.104340201665936,-0.2748794388426129
1745337432.8939526,0.94794,-0.016836,0.205936,29.925000000000004,11.095,9.555000000000001,-0.32704953967558087,0.104340201665936,-0.2748794388426129
1745337432.9741,0.769088,-0.038551999999999996,0.096868,22.505000000000003,6.545000000000001,9.870000000000001,-0.32704953967558087,0.104340201665936,-0.2748794388426129
1745337433.054146,0.807396,0.03782,0.096136,15.435000000000002,-9.555000000000001,13.825000000000001,-0.32704953967558087,0.104340201665936,-0.2748794388426129
1745337433.1342406,0.903288,-0.06417199999999999,0.07076,-5.180000000000001,-10.080000000000002,12.495000000000001,-0.32704953967558087,0.104340201665936,-0.2748794388426129
1745337433.2143075,1.039196,-0.158356,0.053191999999999996,-16.450000000000003,-17.745,7.385000000000001,-0.32704953967558087,0.104340201665936,-0.2748794388426129
1745337433.2944016,1.3114999999999999,-0.12444,0.15884399999999999,-16.520000000000003,-27.615000000000002,-8.645000000000001,-0.32704953967558087,0.104340201665936,-0.2748794388426129
1745337433.3744678,1.235372,-0.122976,0.267424,-33.495000000000005,6.44,-11.095,-0.32704953967558087,0.104340201665936,-0.2748794388426129
1745337433.4545581,1.028704,-0.1525,0.144692,-37.975,-7.455000000000001,-6.195,-0.32704953967558087,0.104340201665936,-0.2748794388426129
1745337433.5346284,0.95038,-0.153476,0.105408,-29.575000000000003,-0.77,-14.350000000000001,-0.32704953967558087,0.104340201665936,-0.2748794388426129
1745337433.6147223,0.804712,0.002928,0.02684,-12.635000000000002,31.465000000000003,-28.28,-0.32704953967558087,0.104340201665936,-0.2748794388426129
1745337433.6947868,1.063108,-0.074908,0.124928,-29.750000000000004,8.855,16.415000000000003,-0.32704953967558087,0.104340201665936,-0.2748794388426129
1745337433.7748764,1.102148,-0.057583999999999996,0.176168,7.595000000000001,5.8100000000000005,11.97,-0.32704953967558087,0.104340201665936,-0.2748794388426129
1745337433.854951,1.1685159999999999,-0.020496,0.325008,20.265,-13.440000000000001,13.895000000000001,-0.3393248575186322,0.0911880754055239,-0.21788689171416045
1745337433.935042,1.031144,0.001464,0.253272,14.385000000000002,-29.470000000000002,13.020000000000001,-0.3393248575186322,0.0911880754055239,-0.21788689171416045
1745337434.0151117,0.992592,0.002928,0.174704,3.8500000000000005,-22.610000000000003,2.6950000000000003,-0.3393248575186322,0.0911880754055239,-0.21788689171416045
1745337434.0952036,0.755424,0.002928,0.029523999999999998,-2.31,-0.805,1.5050000000000001,-0.3393248575186322,0.0911880754055239,-0.21788689171416045
1745337434.1752753,0.68076,-0.09467199999999999,-0.020739999999999998,4.7250000000000005,-14.385000000000002,11.13,-0.3393248575186322,0.0911880754055239,-0.21788689171416045
1745337434.2553618,0.965996,-0.030744,-0.001952,10.360000000000001,-17.92,-1.715,-0.3393248575186322,0.0911880754055239,-0.21788689171416045
1745337434.335435,1.082628,-0.02684,-0.012199999999999999,-0.31500000000000006,-19.635,3.8850000000000002,-0.3393248575186322,0.0911880754055239,-0.21788689171416045
1745337434.4155474,1.319552,-0.032208,0.0053679999999999995,-12.530000000000001,-8.4,-16.625,-0.3393248575186322,0.0911880754055239,-0.21788689171416045
1745337434.4956045,1.15168,-0.191052,0.151524,-22.645000000000003,15.890000000000002,-15.365000000000002,-0.3393248575186322,0.0911880754055239,-0.21788689171416045
1745337434.5756996,1.023824,-0.06709999999999999,0.13419999999999999,-16.59,6.65,-23.275000000000002,-0.3393248575186322,0.0911880754055239,-0.21788689171416045
1745337434.6573753,0.823012,0.035868,0.128588,-16.555000000000003,3.7100000000000004,-10.325000000000001,-0.3393248575186322,0.0911880754055239,-0.21788689171416045
1745337434.7358599,0.793976,-0.032695999999999996,0.0046359999999999995,-18.235000000000003,-7.630000000000001,1.33,-0.3393248575186322,0.0911880754055239,-0.21788689171416045
1745337434.8168154,0.998204,-0.11468,-0.11053199999999999,2.31,-12.110000000000001,5.425000000000001,-0.3393248575186322,0.0911880754055239,-0.21788689171416045
1745337434.896025,1.223172,-0.020007999999999998,-0.13298,9.415000000000001,-31.570000000000004,14.910000000000002,-0.3393248575186322,0.0911880754055239,-0.21788689171416045
1745337434.9762173,1.269776,0.034892,0.049532,-3.8150000000000004,-13.265,-8.75,-0.3393248575186322,0.0911880754055239,-0.21788689171416045
1745337435.0561874,1.159732,0.047335999999999996,0.135664,-17.535,-17.01,-11.235000000000001,-0.3393248575186322,0.0911880754055239,-0.21788689171416045
1745337435.1362596,1.020896,-0.012444,0.071736,-4.0600000000000005,-15.365000000000002,16.975,-0.3393248575186322,0.0911880754055239,-0.21788689171416045
1745337435.2163484,0.775676,-0.052948,0.01098,10.535,1.5050000000000001,11.200000000000001,-0.3393248575186322,0.0911880754055239,-0.21788689171416045
1745337435.296419,0.731024,0.000976,-0.1037,8.89,-1.2600000000000002,3.8500000000000005,-0.3393248575186322,0.0911880754055239,-0.21788689171416045
1745337435.376513,0.8891359999999999,0.015127999999999999,-0.127612,-5.74,-7.735,8.295,-0.3393248575186322,0.0911880754055239,-0.21788689171416045
1745337435.4565854,1.094584,-0.016836,-0.116632,-27.195000000000004,-2.0650000000000004,4.7250000000000005,-0.37702761946514685,0.11573871109162648,-0.06751424813678211
1745337435.5366766,1.193892,-0.067588,-0.154452,-43.015,3.8150000000000004,5.460000000000001,-0.37702761946514685,0.11573871109162648,-0.06751424813678211
1745337435.6196992,1.166564,-0.069052,-0.0046359999999999995,-48.545,16.240000000000002,12.355,-0.37702761946514685,0.11573871109162648,-0.06751424813678211
1745337435.696841,1.061644,-0.220088,0.046848,-50.435,2.415,7.210000000000001,-0.37702761946514685,0.11573871109162648,-0.06751424813678211
1745337435.7798784,0.939888,-0.049288,0.016836,-39.06,6.265000000000001,-11.200000000000001,-0.37702761946514685,0.11573871109162648,-0.06751424813678211
1745337435.8570035,0.781044,-0.07686,-0.084424,-40.88,13.72,-11.725000000000001,-0.37702761946514685,0.11573871109162648,-0.06751424813678211
1745337435.9400277,0.924516,-0.059536,-0.116632,-13.23,4.7250000000000005,4.760000000000001,-0.37702761946514685,0.11573871109162648,-0.06751424813678211
1745337436.0171702,1.026996,-0.017079999999999998,-0.14127599999999998,5.250000000000001,-1.5050000000000001,6.790000000000001,-0.37702761946514685,0.11573871109162648,-0.06751424813678211
1745337436.1001935,1.201456,-0.048799999999999996,-0.159332,17.85,-6.615,8.75,-0.37702761946514685,0.11573871109162648,-0.06751424813678211
1745337436.1773393,1.292712,-0.027327999999999998,0.040015999999999996,19.040000000000003,5.8100000000000005,0.28,-0.37702761946514685,0.11573871109162648,-0.06751424813678211
1745337436.260357,1.082628,-0.058316,0.049776,8.89,-9.520000000000001,-11.795000000000002,-0.37702761946514685,0.11573871109162648,-0.06751424813678211
1745337436.3375,1.0553,-0.033672,0.089304,11.410000000000002,-13.23,-2.31,-0.37702761946514685,0.11573871109162648,-0.06751424813678211
1745337436.4205418,0.794708,-0.020739999999999998,0.026352,11.760000000000002,5.250000000000001,0.42000000000000004,-0.37702761946514685,0.11573871109162648,-0.06751424813678211
1745337436.497665,0.745176,0.024156,-0.055144,8.295,5.95,-2.66,-0.37702761946514685,0.11573871109162648,-0.06751424813678211
1745337436.5836484,0.882304,0.042212,-0.056608,0.035,-1.61,5.670000000000001,-0.37702761946514685,0.11573871109162648,-0.06751424813678211
1745337436.6578338,1.065304,0.017324,-0.066612,-15.750000000000002,-6.6850000000000005,5.880000000000001,-0.37702761946514685,0.11573871109162648,-0.06751424813678211
1745337436.7379313,1.378356,0.039772,-0.095404,-37.135000000000005,-0.17500000000000002,5.53,-0.37702761946514685,0.11573871109162648,-0.06751424813678211
1745337436.817992,1.043344,-0.148108,-0.01586,-45.465,25.69,9.135000000000002,-0.37702761946514685,0.11573871109162648,-0.06751424813678211
1745337436.8980966,1.027728,-0.120292,-0.016347999999999998,-26.040000000000003,5.425000000000001,-3.8500000000000005,-0.37702761946514685,0.11573871109162648,-0.06751424813678211
1745337436.9781566,0.907924,-0.129076,0.039528,-10.955000000000002,7.735,-7.7700000000000005,-0.3857957036387549,0.1578255151249452,-0.04384042086804033
1745337437.058262,0.748348,-0.078324,-0.070516,11.690000000000001,-0.6300000000000001,-0.9100000000000001,-0.3857957036387549,0.1578255151249452,-0.04384042086804033
1745337437.1383245,0.896456,-0.065148,-0.08784,23.1,-2.2750000000000004,5.180000000000001,-0.3857957036387549,0.1578255151249452,-0.04384042086804033
1745337437.219872,1.068232,0.010248,-0.12078,38.43000000000001,-17.5,-0.035,-0.3857957036387549,0.1578255151249452,-0.04384042086804033
1745337437.3000832,1.264164,0.015616,-0.105164,54.81,-22.680000000000003,-5.11,-0.3857957036387549,0.1578255151249452,-0.04384042086804033
1745337437.3786795,1.2627,0.076372,0.05124,61.915000000000006,-12.915000000000001,-23.590000000000003,-0.3857957036387549,0.1578255151249452,-0.04384042086804033
1745337437.4587452,1.171444,0.098576,0.01952,49.73500000000001,-17.815,-24.500000000000004,-0.3857957036387549,0.1578255151249452,-0.04384042086804033
1745337437.5388422,0.933788,0.052704,0.033428,53.025000000000006,4.305000000000001,-9.345,-0.3857957036387549,0.1578255151249452,-0.04384042086804033
1745337437.6189055,0.657824,-0.039772,-0.05246,54.005,13.895000000000001,3.115,-0.3857957036387549,0.1578255151249452,-0.04384042086804033
1745337437.6990004,0.7388319999999999,0.014152,-0.156892,54.18000000000001,-4.305000000000001,13.405000000000001,-0.3857957036387549,0.1578255151249452,-0.04384042086804033
1745337437.7790687,1.014308,0.098332,-0.132248,29.015000000000004,-5.1450000000000005,11.55,-0.3857957036387549,0.1578255151249452,-0.04384042086804033
1745337437.859168,1.137284,-0.018788,-0.124928,8.925,-2.1700000000000004,-3.08,-0.3857957036387549,0.1578255151249452,-0.04384042086804033
1745337437.9392345,1.330044,-0.047824,-0.119804,17.150000000000002,9.275,1.5750000000000002,-0.3857957036387549,0.1578255151249452,-0.04384042086804033
1745337438.0193303,1.1326479999999999,-0.18788,0.085156,1.5050000000000001,28.315,0.385,-0.3857957036387549,0.1578255151249452,-0.04384042086804033
1745337438.0994003,1.001376,-0.12688,0.061732,0.35000000000000003,2.9050000000000002,-9.170000000000002,-0.3857957036387549,0.1578255151249452,-0.04384042086804033
1745337438.1794968,0.773236,-0.072956,0.00122,-10.115,8.05,-16.8,-0.3857957036387549,0.1578255151249452,-0.04384042086804033
1745337438.2595656,0.8313079999999999,-0.029036,-0.10004,-16.905,-5.285,-3.6400000000000006,-0.3857957036387549,0.1578255151249452,-0.04384042086804033
1745337438.3396657,1.00528,-0.00366,-0.092476,-16.485000000000003,-9.73,3.99,-0.3857957036387549,0.1578255151249452,-0.04384042086804033
1745337438.4197326,1.335412,0.013908,-0.12224399999999999,-4.340000000000001,-3.3600000000000003,1.4000000000000001,-0.3857957036387549,0.1578255151249452,-0.04384042086804033
1745337438.4998453,1.28222,0.08295999999999999,0.016592,-2.2750000000000004,21.000000000000004,-11.515,-0.3857957036387549,0.1578255151249452,-0.04384042086804033
1745337438.5798979,1.0760399999999999,0.055876,0.060511999999999996,-3.2900000000000005,-2.6250000000000004,-0.14,-0.3691363437088996,0.056992547128452434,-0.12582200789127576
1745337438.6599884,0.9618479999999999,0.096868,0.06831999999999999,12.39,-13.265,30.240000000000002,-0.3691363437088996,0.056992547128452434,-0.12582200789127576
1745337438.7400582,0.760792,-0.021471999999999998,0.094184,13.895000000000001,4.69,35.14,-0.3691363437088996,0.056992547128452434,-0.12582200789127576
1745337438.8201504,0.731756,0.006588,-0.017811999999999998,23.205000000000002,-3.115,21.805000000000003,-0.3691363437088996,0.056992547128452434,-0.12582200789127576
1745337438.9002228,0.894504,0.038796,-0.13054,30.765000000000004,-16.695,9.905000000000001,-0.3691363437088996,0.056992547128452434,-0.12582200789127576
1745337438.9803143,1.116056,-0.049776,-0.15372,25.165000000000003,-12.775,5.32,-0.3691363437088996,0.056992547128452434,-0.12582200789127576
1745337439.0603843,1.358592,-0.183,-0.11223999999999999,-0.45500000000000007,4.865,4.2700000000000005,-0.3691363437088996,0.056992547128452434,-0.12582200789127576
1745337439.140481,1.147288,-0.2013,0.10174799999999999,-14.945000000000002,31.290000000000003,5.880000000000001,-0.3691363437088996,0.056992547128452434,-0.12582200789127576
1745337439.2205546,1.010892,-0.29670399999999997,0.171532,-14.385000000000002,3.08,-7.525,-0.3691363437088996,0.056992547128452434,-0.12582200789127576
1745337439.3006504,0.850828,-0.1403,0.06417199999999999,-20.615000000000002,3.99,-10.115,-0.3691363437088996,0.056992547128452434,-0.12582200789127576
1745337439.3807285,0.823256,-0.022203999999999998,-0.13786,-11.690000000000001,-12.39,-15.505,-0.3691363437088996,0.056992547128452434,-0.12582200789127576
1745337439.4608092,1.075796,-0.055144,-0.155428,-12.530000000000001,-14.945000000000002,-5.215000000000001,-0.3691363437088996,0.056992547128452434,-0.12582200789127576
1745337439.5408783,1.2383,-0.023424,-0.05978,-0.31500000000000006,-15.015,-12.355,-0.3691363437088996,0.056992547128452434,-0.12582200789127576
1745337439.6209745,1.304668,0.035623999999999996,-0.020984,11.445,-4.445,-10.955000000000002,-0.3691363437088996,0.056992547128452434,-0.12582200789127576
1745337439.701042,1.113128,0.065636,0.105652,21.28,5.075,-7.000000000000001,-0.3691363437088996,0.056992547128452434,-0.12582200789127576
1745337439.7811344,0.925736,0.010735999999999999,-0.007076,24.395000000000003,5.985,9.170000000000002,-0.3691363437088996,0.056992547128452434,-0.12582200789127576
1745337439.8612068,0.6932039999999999,-0.010492,-0.028059999999999998,21.945000000000004,15.820000000000002,11.445,-0.3691363437088996,0.056992547128452434,-0.12582200789127576
1745337439.9413023,0.77104,0.019032,-0.086376,11.095,1.05,7.315,-0.3691363437088996,0.056992547128452434,-0.12582200789127576
1745337440.0213723,0.9189039999999999,0.01098,-0.135908,3.6400000000000006,-14.875000000000002,4.305000000000001,-0.3691363437088996,0.056992547128452434,-0.12582200789127576
1745337440.1014667,1.209996,-0.022935999999999998,-0.10126,-2.5900000000000003,-22.540000000000003,5.8100000000000005,-0.3691363437088996,0.056992547128452434,-0.12582200789127576
1745337440.1815355,1.3395599999999999,-0.030255999999999998,-0.134688,-4.2700000000000005,-7.210000000000001,4.235,-0.3708899605436212,0.07452871547566857,-0.11398509425690487
1745337440.2616374,1.002596,-0.12444,0.083692,-7.420000000000001,12.845,3.6400000000000006,-0.3708899605436212,0.07452871547566857,-0.11398509425690487
1745337440.3417,1.030656,-0.190076,0.0053679999999999995,-8.505,-1.7500000000000002,-10.815000000000001,-0.3708899605436212,0.07452871547566857,-0.11398509425690487
1745337440.4218059,0.82838,-0.14274,0.027327999999999998,-8.75,41.580000000000005,-3.8500000000000005,-0.3708899605436212,0.07452871547566857,-0.11398509425690487
1745337440.5018692,0.828624,-0.05368,0.087352,-18.970000000000002,18.165000000000003,-26.040000000000003,-0.3708899605436212,0.07452871547566857,-0.11398509425690487
1745337440.58196,1.187304,0.010248,-0.10614,-27.790000000000003,-21.805000000000003,-18.865000000000002,-0.3708899605436212,0.07452871547566857,-0.11398509425690487
1745337440.6620364,1.298568,0.159332,-0.102236,-9.905000000000001,-4.41,-16.555000000000003,-0.3708899605436212,0.07452871547566857,-0.11398509425690487
1745337440.742119,1.327848,0.067832,0.158356,0.21000000000000002,24.290000000000003,11.795000000000002,-0.3708899605436212,0.07452871547566857,-0.11398509425690487
1745337440.8221881,0.98088,0.052948,0.204228,12.110000000000001,21.735000000000003,15.330000000000002,-0.3708899605436212,0.07452871547566857,-0.11398509425690487
1745337440.9022777,0.84424,0.05978,0.134444,20.3,0.665,4.550000000000001,-0.3708899605436212,0.07452871547566857,-0.11398509425690487
1745337440.9823508,0.748836,0.081496,0.048799999999999996,30.205000000000002,-14.945000000000002,-12.565000000000001,-0.3708899605436212,0.07452871547566857,-0.11398509425690487
1745337441.0624409,0.772992,0.017079999999999998,0.052948,19.32,-18.76,-15.820000000000002,-0.3708899605436212,0.07452871547566857,-0.11398509425690487
1745337441.1425297,0.900604,0.056852,0.037332,15.96,-14.63,-10.465000000000002,-0.3708899605436212,0.07452871547566857,-0.11398509425690487
1745337441.2226202,1.220732,0.144692,-0.085156,8.96,-19.215000000000003,2.6250000000000004,-0.3708899605436212,0.07452871547566857,-0.11398509425690487
1745337441.3026912,1.333216,0.121268,-0.023912,-4.2700000000000005,9.275,-2.87,-0.3708899605436212,0.07452871547566857,-0.11398509425690487
1745337441.382781,1.115324,-0.027816,0.181048,-26.46,36.085,-5.390000000000001,-0.3708899605436212,0.07452871547566857,-0.11398509425690487
1745337441.4628541,1.049688,-0.046116,0.146888,-25.200000000000003,-0.10500000000000001,-4.130000000000001,-0.3708899605436212,0.07452871547566857,-0.11398509425690487
1745337441.5429404,0.876204,0.056852,0.09467199999999999,-26.320000000000004,14.035000000000002,-4.83,-0.3708899605436212,0.07452871547566857,-0.11398509425690487
1745337441.6252477,0.768112,0.113216,0.073688,-22.680000000000003,8.680000000000001,-6.0200000000000005,-0.3708899605436212,0.07452871547566857,-0.11398509425690487
1745337441.7031,1.067744,0.10736,0.07124799999999999,-16.765,-18.200000000000003,2.0300000000000002,-0.3612450679526523,0.040333187198597104,-0.17448487505480054
1745337441.7847338,1.21634,0.082472,0.117608,-4.445,-9.975000000000001,4.305000000000001,-0.3612450679526523,0.040333187198597104,-0.17448487505480054
1745337441.863264,1.35054,0.099308,0.199104,15.855000000000002,3.8850000000000002,8.365,-0.3612450679526523,0.040333187198597104,-0.17448487505480054
1745337441.9441698,1.094584,0.155916,0.20349599999999998,35.175000000000004,11.025,11.305000000000001,-0.3612450679526523,0.040333187198597104,-0.17448487505480054
1745337442.0234287,0.95404,0.1403,0.174704,40.705000000000005,7.7700000000000005,15.995000000000001,-0.3612450679526523,0.040333187198597104,-0.17448487505480054
1745337442.103611,0.710284,0.086864,0.150304,39.585,9.345,15.505,-0.3612450679526523,0.040333187198597104,-0.17448487505480054
1745337442.1835866,0.752008,0.013908,0.053924,27.475,-6.44,20.265,-0.3612450679526523,0.040333187198597104,-0.17448487505480054
1745337442.2636583,0.874984,0.038064,0.051972,17.815,-8.995000000000001,15.260000000000002,-0.3612450679526523,0.040333187198597104,-0.17448487505480054
1745337442.3452406,1.12606,0.039772,0.117852,0.9100000000000001,-10.255,2.45,-0.3612450679526523,0.040333187198597104,-0.17448487505480054
1745337442.4243848,1.30784,-0.008052,0.172264,-16.17,-1.2950000000000002,-8.995000000000001,-0.3612450679526523,0.040333187198597104,-0.17448487505480054
1745337442.5039287,1.196576,-0.061,0.252784,-29.645000000000003,26.320000000000004,-7.105,-0.3612450679526523,0.040333187198597104,-0.17448487505480054
1745337442.590018,1.066524,-0.075152,0.201788,-27.020000000000003,11.655000000000001,-9.870000000000001,-0.3612450679526523,0.040333187198597104,-0.17448487505480054
1745337442.664103,0.783484,-0.054168,0.197152,-26.705000000000002,10.010000000000002,-13.615000000000002,-0.3612450679526523,0.040333187198597104,-0.17448487505480054
1745337442.7441888,0.897432,0.000488,0.068076,-25.935000000000002,-21.735000000000003,-12.775,-0.3612450679526523,0.040333187198597104,-0.17448487505480054
1745337442.8242567,1.077016,-0.019032,0.06588,-23.310000000000002,-25.480000000000004,-1.12,-0.3612450679526523,0.040333187198597104,-0.17448487505480054
1745337442.9043562,1.147288,0.032695999999999996,0.131028,-15.575000000000001,-15.295000000000002,1.995,-0.3612450679526523,0.040333187198597104,-0.17448487505480054
1745337442.9844227,1.2695319999999999,0.072224,0.260104,-9.590000000000002,6.23,-1.7850000000000001,-0.3612450679526523,0.040333187198597104,-0.17448487505480054
1745337443.0645227,1.06628,0.112484,0.255956,-6.4750000000000005,25.375000000000004,5.215000000000001,-0.3612450679526523,0.040333187198597104,-0.17448487505480054
1745337443.1445897,0.9052399999999999,0.077836,0.218136,-2.975,31.220000000000002,15.750000000000002,-0.3612450679526523,0.040333187198597104,-0.17448487505480054
1745337443.2246914,0.718336,0.032695999999999996,0.148108,-6.0200000000000005,28.560000000000002,16.450000000000003,-0.3612450679526523,0.040333187198597104,-0.17448487505480054
1745337443.3047564,0.795684,0.044896,0.119072,-5.670000000000001,-0.10500000000000001,14.560000000000002,-0.3261727312582201,0.09820254274441034,-0.1972818939061815
1745337443.3848622,0.937692,0.046604,0.15372,-8.225000000000001,-3.6400000000000006,11.725000000000001,-0.3261727312582201,0.09820254274441034,-0.1972818939061815
1745337443.4649298,1.085312,0.01342,0.219356,-12.250000000000002,-6.930000000000001,3.22,-0.3261727312582201,0.09820254274441034,-0.1972818939061815
1745337443.5450294,1.166076,-0.034159999999999996,0.20374,-13.020000000000001,-25.795,-7.315,-0.3261727312582201,0.09820254274441034,-0.1972818939061815
1745337443.6250973,1.202432,-0.061488,0.262544,-23.205000000000002,-2.8000000000000003,-12.180000000000001,-0.3261727312582201,0.09820254274441034,-0.1972818939061815
1745337443.7051957,1.078236,-0.160552,0.2928,-31.360000000000003,14.490000000000002,-12.600000000000001,-0.3261727312582201,0.09820254274441034,-0.1972818939061815
1745337443.7852604,0.85034,-0.076372,0.20105599999999998,-26.740000000000002,19.145000000000003,-11.375000000000002,-0.3261727312582201,0.09820254274441034,-0.1972818939061815
1745337443.865363,0.8744959999999999,-0.015372,0.11223999999999999,-18.200000000000003,-14.980000000000002,-9.765,-0.3261727312582201,0.09820254274441034,-0.1972818939061815
1745337443.9454288,0.990152,0.0183,0.16958,-11.655000000000001,-5.705000000000001,-9.345,-0.3261727312582201,0.09820254274441034,-0.1972818939061815
1745337444.0255294,1.088728,-0.0060999999999999995,0.126148,0.805,-16.94,-2.9050000000000002,-0.3261727312582201,0.09820254274441034,-0.1972818939061815
1745337444.1056135,1.300032,0.057828,0.261812,13.650000000000002,-11.340000000000002,1.2950000000000002,-0.3261727312582201,0.09820254274441034,-0.1972818939061815
1745337444.1856976,1.02358,0.13908,0.26156799999999997,24.92,18.48,-1.2600000000000002,-0.3261727312582201,0.09820254274441034,-0.1972818939061815
1745337444.265762,0.9577,0.090036,0.243512,25.830000000000002,7.07,11.375000000000002,-0.3261727312582201,0.09820254274441034,-0.1972818939061815
1745337444.34586,0.735416,0.015616,0.17568,23.835,15.785000000000002,16.695,-0.3261727312582201,0.09820254274441034,-0.1972818939061815
1745337444.4259236,0.7573759999999999,0.046116,0.143716,21.245,5.670000000000001,18.375,-0.3261727312582201,0.09820254274441034,-0.1972818939061815
1745337444.5060244,0.86132,0.056119999999999996,0.125172,16.345000000000002,-0.49000000000000005,18.305000000000003,-0.3261727312582201,0.09820254274441034,-0.1972818939061815
1745337444.5860934,1.072624,0.0427,0.155672,10.850000000000001,-3.22,12.670000000000002,-0.3261727312582201,0.09820254274441034,-0.1972818939061815
1745337444.6661916,1.17242,0.027084,0.22082,6.965000000000001,-2.1700000000000004,0.0,-0.3261727312582201,0.09820254274441034,-0.1972818939061815
1745337444.7462614,1.302472,-0.012688,0.31842,-5.355,10.57,-6.755000000000001,-0.3261727312582201,0.09820254274441034,-0.1972818939061815
1745337444.8263583,1.045784,-0.072224,0.291336,-9.170000000000002,15.190000000000001,-10.500000000000002,-0.3261727312582201,0.09820254274441034,-0.1972818939061815
1745337444.9064212,0.970388,-0.06539199999999999,0.2745,-7.245000000000001,-0.665,-6.755000000000001,-0.33581762384918895,0.09469530907496712,-0.1981587023235423
1745337444.9865294,0.760792,-0.007076,0.163968,-2.415,-19.110000000000003,-7.000000000000001,-0.33581762384918895,0.09469530907496712,-0.1981587023235423
1745337445.0665822,0.938912,-0.022203999999999998,0.112484,-3.43,-18.585,3.6400000000000006,-0.33581762384918895,0.09469530907496712,-0.1981587023235423
1745337445.1466742,1.067744,0.011712,0.172752,2.6950000000000003,-15.120000000000001,4.7250000000000005,-0.33581762384918895,0.09469530907496712,-0.1981587023235423
1745337445.2267468,1.252696,0.035868,0.20618,12.46,-16.1,3.2550000000000003,-0.33581762384918895,0.09469530907496712,-0.1981587023235423
1745337445.3068354,1.099952,0.11102,0.284016,24.85,19.215000000000003,-5.6000000000000005,-0.33581762384918895,0.09469530907496712,-0.1981587023235423
1745337445.3869054,1.050908,0.139324,0.253028,30.765000000000004,4.655,-0.9800000000000001,-0.33581762384918895,0.09469530907496712,-0.1981587023235423
1745337445.4670007,0.81496,0.06222,0.166408,33.635000000000005,3.99,5.005000000000001,-0.33581762384918895,0.09469530907496712,-0.1981587023235423
1745337445.5474474,0.774212,0.028304,0.111996,32.025000000000006,-0.8750000000000001,13.125000000000002,-0.33581762384918895,0.09469530907496712,-0.1981587023235423
1745337445.6271574,0.83326,0.048068,0.084912,28.105000000000004,-1.155,13.615000000000002,-0.33581762384918895,0.09469530907496712,-0.1981587023235423
1745337445.7072322,1.02724,0.027572,0.08906,17.675,-6.090000000000001,6.090000000000001,-0.33581762384918895,0.09469530907496712,-0.1981587023235423
1745337445.7873244,1.130452,-0.018788,0.127368,3.1850000000000005,-11.830000000000002,-4.515000000000001,-0.33581762384918895,0.09469530907496712,-0.1981587023235423
1745337445.8673964,1.3668879999999999,-0.027084,0.270596,-11.340000000000002,-4.0600000000000005,-4.305000000000001,-0.33581762384918895,0.09469530907496712,-0.1981587023235423
1745337445.947486,1.010892,-0.063928,0.29768,-21.805000000000003,23.835,2.7300000000000004,-0.33581762384918895,0.09469530907496712,-0.1981587023235423
1745337446.0275602,0.96746,-0.04758,0.238388,-24.325000000000003,-0.45500000000000007,-1.155,-0.33581762384918895,0.09469530907496712,-0.1981587023235423
1745337446.1076536,0.7154079999999999,-0.014152,0.13419999999999999,-27.930000000000003,0.805,-9.030000000000001,-0.33581762384918895,0.09469530907496712,-0.1981587023235423
1745337446.1877272,0.93696,-0.034892,0.089304,-32.865,-2.8000000000000003,0.35000000000000003,-0.33581762384918895,0.09469530907496712,-0.1981587023235423
1745337446.2678194,1.040904,0.02196,0.142252,-25.76,-2.415,2.5900000000000003,-0.33581762384918895,0.09469530907496712,-0.1981587023235423
1745337446.3478916,1.204872,-0.011712,0.15372,-14.595,-14.175,3.6400000000000006,-0.33581762384918895,0.09469530907496712,-0.1981587023235423
1745337446.427996,1.240496,0.04636,0.28304,3.115,12.845,1.155,-0.3340640070144673,0.0911880754055239,-0.18062253397632616
1745337446.5080562,1.071648,0.103944,0.277672,15.995000000000001,14.315000000000001,2.87,-0.3340640070144673,0.0911880754055239,-0.18062253397632616
1745337446.588148,0.835456,0.030987999999999998,0.188612,19.110000000000003,7.490000000000001,6.580000000000001,-0.3340640070144673,0.0911880754055239,-0.18062253397632616
1745337446.670209,0.75884,0.019275999999999998,0.13298,17.64,-2.31,9.765,-0.3340640070144673,0.0911880754055239,-0.18062253397632616
1745337446.7483122,0.794952,0.046116,0.127124,14.700000000000001,-3.7800000000000002,16.380000000000003,-0.3340640070144673,0.0911880754055239,-0.18062253397632616
1745337446.8296201,0.957212,0.030744,0.136396,8.33,-9.100000000000001,11.830000000000002,-0.3340640070144673,0.0911880754055239,-0.18062253397632616
1745337446.908473,1.117276,-0.036356,0.180804,-5.915000000000001,-8.05,2.31,-0.3340640070144673,0.0911880754055239,-0.18062253397632616
1745337446.989067,1.298568,-0.093452,0.25132,-19.810000000000002,-0.14,-9.870000000000001,-0.3340640070144673,0.0911880754055239,-0.18062253397632616
1745337447.0686378,0.999424,-0.132004,0.263032,-29.435000000000002,30.03,-17.045,-0.3340640070144673,0.0911880754055239,-0.18062253397632616
1745337447.1487248,1.055056,-0.101504,0.266936,-29.890000000000004,11.760000000000002,-14.455000000000002,-0.3340640070144673,0.0911880754055239,-0.18062253397632616
1745337447.2288013,0.7993439999999999,-0.027572,0.19032,-26.075000000000003,16.625,-12.775,-0.3340640070144673,0.0911880754055239,-0.18062253397632616
1745337447.3088715,0.877668,0.008784,0.131516,-8.75,-11.235000000000001,1.8200000000000003,-0.3340640070144673,0.0911880754055239,-0.18062253397632616
1745337447.3889627,1.072136,0.06588,0.165188,4.760000000000001,-6.090000000000001,15.365000000000002,-0.3340640070144673,0.0911880754055239,-0.18062253397632616
1745337447.470477,1.068964,0.040748,0.18056,27.860000000000003,-1.2950000000000002,28.42,-0.3340640070144673,0.0911880754055239,-0.18062253397632616
1745337447.5492134,1.321992,0.032208,0.369172,57.82000000000001,-3.0450000000000004,9.170000000000002,-0.3340640070144673,0.0911880754055239,-0.18062253397632616
1745337447.6292503,1.044076,0.053436,0.320372,61.915000000000006,3.2550000000000003,-7.98,-0.3340640070144673,0.0911880754055239,-0.18062253397632616
1745337447.7093163,0.933056,0.012931999999999999,0.246196,53.34,-13.72,-8.435,-0.3340640070144673,0.0911880754055239,-0.18062253397632616
1745337447.7894187,0.776408,-0.03782,0.164944,43.015,-5.040000000000001,4.760000000000001,-0.3340640070144673,0.0911880754055239,-0.18062253397632616
1745337447.8694866,0.762012,0.0034159999999999998,0.105164,39.585,-8.995000000000001,15.645000000000001,-0.3340640070144673,0.0911880754055239,-0.18062253397632616
1745337447.9495833,0.914512,0.002196,0.0854,31.01,-9.415000000000001,17.185000000000002,-0.3340640070144673,0.0911880754055239,-0.18062253397632616
1745337448.0296478,1.060912,-0.039772,0.149816,10.64,-4.375,12.355,-0.32266549758877683,0.05436212187637001,-0.21657167908811925
1745337448.1097453,1.21268,-0.08588799999999999,0.19154,-7.175000000000001,-5.985,1.715,-0.32266549758877683,0.05436212187637001,-0.21657167908811925
1745337448.1898174,1.2275639999999999,-0.122732,0.30988,-23.485000000000003,28.980000000000004,-3.535,-0.32266549758877683,0.05436212187637001,-0.21657167908811925
1745337448.2699122,1.003084,-0.078812,0.263276,-23.17,26.425000000000004,-11.13,-0.32266549758877683,0.05436212187637001,-0.21657167908811925
1745337448.3499815,0.836676,-0.009271999999999999,0.20569199999999999,-25.445000000000004,4.7250000000000005,-12.565000000000001,-0.32266549758877683,0.05436212187637001,-0.21657167908811925
1745337448.4300795,0.877668,-0.01342,0.08906,-27.335,-12.915000000000001,-17.535,-0.32266549758877683,0.05436212187637001,-0.21657167908811925
1745337448.510143,1.05652,0.012444,0.140788,-19.285,-4.83,-1.7850000000000001,-0.32266549758877683,0.05436212187637001,-0.21657167908811925
1745337448.590243,1.083604,0.019764,0.212524,0.42000000000000004,-8.190000000000001,13.965000000000002,-0.32266549758877683,0.05436212187637001,-0.21657167908811925
1745337448.6703057,1.337852,0.072468,0.32256799999999997,16.135,-12.075000000000001,7.245000000000001,-0.32266549758877683,0.05436212187637001,-0.21657167908811925
1745337448.750404,1.024312,0.138104,0.3355,18.970000000000002,11.830000000000002,-6.195,-0.32266549758877683,0.05436212187637001,-0.21657167908811925
1745337448.8304696,0.906216,0.124928,0.27327999999999997,19.005000000000003,4.340000000000001,-4.130000000000001,-0.32266549758877683,0.05436212187637001,-0.21657167908811925
1745337448.9105697,0.677832,0.054655999999999996,0.156648,21.665000000000003,7.700000000000001,10.325000000000001,-0.32266549758877683,0.05436212187637001,-0.21657167908811925
1745337448.9906342,0.761768,0.016104,0.090768,24.535000000000004,-8.575000000000001,19.425,-0.32266549758877683,0.05436212187637001,-0.21657167908811925
1745337449.0707371,0.971608,0.037576,0.077836,21.105,-9.450000000000001,14.315000000000001,-0.32266549758877683,0.05436212187637001,-0.21657167908811925
1745337449.150801,1.120692,0.026352,0.149084,7.5600000000000005,-8.4,6.6850000000000005,-0.32266549758877683,0.05436212187637001,-0.21657167908811925
1745337449.2309015,1.216828,-0.055632,0.15494,-2.7300000000000004,-12.425,-6.545000000000001,-0.32266549758877683,0.05436212187637001,-0.21657167908811925
1745337449.3109686,1.244156,-0.105408,0.288408,-12.600000000000001,15.085,-3.22,-0.32266549758877683,0.05436212187637001,-0.21657167908811925
1745337449.3910713,1.01382,-0.105164,0.309392,-10.815000000000001,17.535,-8.610000000000001,-0.32266549758877683,0.05436212187637001,-0.21657167908811925
1745337449.4711354,0.80398,-0.068076,0.212524,-16.380000000000003,5.95,-7.525,-0.32266549758877683,0.05436212187637001,-0.21657167908811925
1745337449.5512376,0.854244,0.014884,0.08784,-13.860000000000001,-13.965000000000002,-13.580000000000002,-0.32266549758877683,0.05436212187637001,-0.21657167908811925
1745337449.6312993,1.053836,-0.032452,0.136152,-9.065000000000001,-5.670000000000001,0.665,-0.3437088996054362,0.04997807978956598,-0.20298114861902675
1745337449.711387,1.140456,0.008296,0.213744,8.785,8.365,13.615000000000002,-0.3437088996054362,0.04997807978956598,-0.20298114861902675
1745337449.7914653,1.291248,0.044407999999999996,0.257664,19.705000000000002,2.0300000000000002,14.945000000000002,-0.3437088996054362,0.04997807978956598,-0.20298114861902675
1745337449.871568,1.098976,0.116144,0.295728,20.720000000000002,6.8950000000000005,2.9400000000000004,-0.3437088996054362,0.04997807978956598,-0.20298114861902675
1745337449.9516368,0.892796,0.078568,0.24790399999999999,16.59,-5.215000000000001,0.21000000000000002,-0.3437088996054362,0.04997807978956598,-0.20298114861902675
1745337450.0317435,0.72834,0.039772,0.176168,8.715000000000002,-7.140000000000001,1.2950000000000002,-0.3437088996054362,0.04997807978956598,-0.20298114861902675
1745337450.1118073,0.745176,-0.012688,0.110288,-5.215000000000001,-1.7500000000000002,4.305000000000001,-0.3437088996054362,0.04997807978956598,-0.20298114861902675
1745337450.191912,0.9484279999999999,0.009028,0.077348,-4.0600000000000005,-10.255,5.390000000000001,-0.3437088996054362,0.04997807978956598,-0.20298114861902675
1745337450.27198,1.160708,0.041968,0.10345599999999999,1.0150000000000001,-16.695,2.9050000000000002,-0.3437088996054362,0.04997807978956598,-0.20298114861902675
1745337450.3520792,1.23708,-0.05368,0.168604,-4.69,-8.540000000000001,-2.345,-0.3437088996054362,0.04997807978956598,-0.20298114861902675
1745337450.4321418,1.174372,-0.133956,0.303292,-7.3500000000000005,2.765,0.56,-0.3437088996054362,0.04997807978956598,-0.20298114861902675
1745337450.5122447,1.015284,-0.097356,0.24156,-8.645000000000001,0.6300000000000001,-1.5750000000000002,-0.3437088996054362,0.04997807978956598,-0.20298114861902675
1745337450.59231,0.85522,0.042943999999999996,0.139568,-16.625,10.955000000000002,-18.200000000000003,-0.3437088996054362,0.04997807978956598,-0.20298114861902675
1745337450.6724014,0.827404,0.020252,0.07076,-20.545,1.3650000000000002,-13.405000000000001,-0.3437088996054362,0.04997807978956598,-0.20298114861902675
1745337450.752474,1.041636,-0.017324,0.127368,-15.260000000000002,-9.975000000000001,-4.130000000000001,-0.3437088996054362,0.04997807978956598,-0.20298114861902675
1745337450.8325677,1.149972,0.043188,0.164944,-0.07,-8.715000000000002,2.0300000000000002,-0.3437088996054362,0.04997807978956598,-0.20298114861902675
1745337450.9126356,1.356396,0.093696,0.230092,18.130000000000003,-9.695,9.450000000000001,-0.3437088996054362,0.04997807978956598,-0.20298114861902675
1745337450.9927278,1.15656,0.115412,0.305244,28.210000000000004,15.890000000000002,9.31,-0.3437088996054362,0.04997807978956598,-0.20298114861902675
1745337451.0727978,0.951844,0.107848,0.273036,27.650000000000002,16.03,8.260000000000002,-0.3437088996054362,0.04997807978956598,-0.20298114861902675
1745337451.152895,0.62952,0.02196,0.127856,18.830000000000002,8.75,9.450000000000001,-0.32266549758877683,0.028057869355545814,-0.2121876370013152
1745337451.2329671,0.724436,0.020984,0.08784,15.365000000000002,-13.510000000000002,12.355,-0.32266549758877683,0.028057869355545814,-0.2121876370013152
1745337451.3130574,0.84912,0.075396,0.058804,9.975000000000001,-7.105,17.85,-0.32266549758877683,0.028057869355545814,-0.2121876370013152
1745337451.3931262,1.13582,-0.014152,0.1281,-1.995,-15.47,17.360000000000003,-0.32266549758877683,0.028057869355545814,-0.2121876370013152
1745337451.4732213,1.2841719999999999,-0.040015999999999996,0.162992,-9.835,-10.57,6.23,-0.32266549758877683,0.028057869355545814,-0.2121876370013152
1745337451.5532885,1.184132,-0.127856,0.2989,-23.730000000000004,23.765,-0.6300000000000001,-0.32266549758877683,0.028057869355545814,-0.2121876370013152
1745337451.6333852,1.0377319999999999,-0.13176,0.25668799999999997,-20.545,8.295,-12.32,-0.32266549758877683,0.028057869355545814,-0.2121876370013152
1745337451.7134473,0.862296,-0.049776,0.212036,-12.845,4.375,-21.28,-0.32266549758877683,0.028057869355545814,-0.2121876370013152
1745337451.7935362,0.8235,-0.0046359999999999995,0.061,-8.75,-17.045,-2.66,-0.32266549758877683,0.028057869355545814,-0.2121876370013152
1745337451.873622,1.000156,0.0068319999999999995,0.047335999999999996,-12.46,-13.650000000000002,2.6950000000000003,-0.32266549758877683,0.028057869355545814,-0.2121876370013152
1745337451.953699,1.1277679999999999,-0.051727999999999996,0.12224399999999999,-6.370000000000001,-0.8750000000000001,-7.630000000000001,-0.32266549758877683,0.028057869355545814,-0.2121876370013152
1745337452.0337691,1.334436,0.0366,0.255956,13.23,5.74,-4.585000000000001,-0.32266549758877683,0.028057869355545814,-0.2121876370013152
1745337452.1138594,1.0833599999999999,0.169336,0.317444,26.390000000000004,20.160000000000004,-4.2,-0.32266549758877683,0.028057869355545814,-0.2121876370013152
1745337452.1939278,1.03212,0.080276,0.276696,24.01,11.305000000000001,0.7350000000000001,-0.32266549758877683,0.028057869355545814,-0.2121876370013152
1745337452.274018,0.743956,0.04758,0.156892,22.715000000000003,13.055000000000001,9.485000000000001,-0.32266549758877683,0.028057869355545814,-0.2121876370013152
1745337452.3540874,0.7585959999999999,0.03782,0.096624,15.575000000000001,-12.355,13.125000000000002,-0.32266549758877683,0.028057869355545814,-0.2121876370013152
1745337452.4341922,0.836432,0.00366,0.036356,10.395000000000001,-22.820000000000004,13.755,-0.32266549758877683,0.028057869355545814,-0.2121876370013152
1745337452.5142517,1.082628,0.02196,0.115412,3.0100000000000002,-27.265000000000004,14.385000000000002,-0.32266549758877683,0.028057869355545814,-0.2121876370013152
1745337452.5958009,1.17242,-0.069296,0.146156,-10.780000000000001,-7.175000000000001,8.435,-0.32266549758877683,0.028057869355545814,-0.2121876370013152
1745337452.6744592,1.3310199999999999,-0.17177599999999998,0.34477199999999997,-19.740000000000002,18.515,9.555000000000001,-0.32266549758877683,0.028057869355545814,-0.2121876370013152
1745337452.7545347,0.987712,-0.125416,0.245464,-18.830000000000002,29.120000000000005,2.45,-0.30863656291100394,0.07014467338886453,-0.18062253397632616
1745337452.8346405,0.847656,-0.056608,0.19178399999999998,-18.445,8.575000000000001,-12.565000000000001,-0.30863656291100394,0.07014467338886453,-0.18062253397632616
1745337452.9146972,0.72468,0.028304,0.10052799999999999,-18.235000000000003,-10.465000000000002,-15.400000000000002,-0.30863656291100394,0.07014467338886453,-0.18062253397632616
1745337452.9948063,1.013332,-0.046848,0.061488,-19.635,-8.47,-6.300000000000001,-0.30863656291100394,0.07014467338886453,-0.18062253397632616
1745337453.0748577,1.261236,0.013663999999999999,0.156404,-3.4650000000000003,-28.175000000000004,0.665,-0.30863656291100394,0.07014467338886453,-0.18062253397632616
1745337453.154968,1.295884,-0.04392,0.198616,3.1500000000000004,-8.715000000000002,16.380000000000003,-0.30863656291100394,0.07014467338886453,-0.18062253397632616
1745337453.235023,1.031144,-0.036356,0.218136,10.535,19.110000000000003,18.200000000000003,-0.30863656291100394,0.07014467338886453,-0.18062253397632616
1745337453.3151321,1.111664,0.066124,0.259372,23.590000000000003,-7.175000000000001,9.030000000000001,-0.30863656291100394,0.07014467338886453,-0.18062253397632616
1745337453.3951905,0.782264,-0.039528,0.146156,13.475000000000001,-0.5950000000000001,21.42,-0.30863656291100394,0.07014467338886453,-0.18062253397632616
1745337453.4753003,0.6341559999999999,-0.08588799999999999,0.084668,3.9550000000000005,3.8500000000000005,29.960000000000004,-0.30863656291100394,0.07014467338886453,-0.18062253397632616
1745337453.5553603,0.728584,-0.116876,0.015616,0.385,-6.510000000000001,5.180000000000001,-0.30863656291100394,0.07014467338886453,-0.18062253397632616
1745337453.6354578,1.223172,0.042212,0.038308,5.74,-28.560000000000002,-21.595000000000002,-0.30863656291100394,0.07014467338886453,-0.18062253397632616
1745337453.7155185,1.269288,-0.133224,0.060511999999999996,-15.785000000000002,-30.065,-0.28,-0.30863656291100394,0.07014467338886453,-0.18062253397632616
1745337453.7956195,1.205604,-0.204716,0.055876,-17.01,20.895000000000003,14.175,-0.30863656291100394,0.07014467338886453,-0.18062253397632616
1745337453.8756804,0.915732,-0.166164,0.26718,0.21000000000000002,8.96,10.22,-0.30863656291100394,0.07014467338886453,-0.18062253397632616
1745337453.9557831,0.99552,-0.10931199999999999,0.090036,-9.835,-33.215,-14.070000000000002,-0.30863656291100394,0.07014467338886453,-0.18062253397632616
1745337454.03585,0.808616,-0.053924,-0.020739999999999998,-12.355,1.61,-26.775000000000002,-0.30863656291100394,0.07014467338886453,-0.18062253397632616
1745337454.115949,0.8879159999999999,-0.009271999999999999,0.112728,14.910000000000002,-0.17500000000000002,-1.155,-0.30863656291100394,0.07014467338886453,-0.18062253397632616
1745337454.196016,1.272704,-0.107848,0.028548,3.2550000000000003,-34.545,3.0100000000000002,-0.30863656291100394,0.07014467338886453,-0.18062253397632616
1745337454.2761152,1.235128,-0.046848,-0.063684,-3.0100000000000002,-12.985000000000001,-16.275000000000002,-0.30863656291100394,0.07014467338886453,-0.18062253397632616
1745337454.3561826,1.208044,0.15982,0.105164,1.225,-4.375,-30.800000000000004,-0.34721613327487943,0.23936869793950022,0.026742656729504603
1745337454.4362764,1.149484,0.036356,0.097112,-4.62,-23.695000000000004,1.155,-0.34721613327487943,0.23936869793950022,0.026742656729504603
1745337454.5163457,0.746884,0.034159999999999996,0.08003199999999999,9.765,0.525,4.340000000000001,-0.34721613327487943,0.23936869793950022,0.026742656729504603
1745337454.5964482,0.605364,0.009028,-0.052216,15.05,1.2950000000000002,5.355,-0.34721613327487943,0.23936869793950022,0.026742656729504603
1745337454.6765058,0.779092,0.077836,-0.09516,10.850000000000001,-4.69,5.215000000000001,-0.34721613327487943,0.23936869793950022,0.026742656729504603
1745337454.7566102,1.107028,0.10052799999999999,-0.097356,-5.705000000000001,-7.000000000000001,-4.445,-0.34721613327487943,0.23936869793950022,0.026742656729504603
1745337454.8366735,1.266604,0.000976,-0.138836,-19.39,-2.345,-2.6950000000000003,-0.34721613327487943,0.23936869793950022,0.026742656729504603
1745337454.9167755,1.301008,-0.045871999999999996,0.06831999999999999,-30.310000000000002,15.330000000000002,6.545000000000001,-0.34721613327487943,0.23936869793950022,0.026742656729504603
1745337454.996843,1.0291919999999999,-0.097356,0.11956,-36.155,8.715000000000002,7.3500000000000005,-0.34721613327487943,0.23936869793950022,0.026742656729504603
1745337455.0769463,0.9520879999999999,-0.029523999999999998,0.123708,-30.275000000000002,3.5000000000000004,-8.33,-0.34721613327487943,0.23936869793950022,0.026742656729504603
1745337455.1570125,0.718092,0.0053679999999999995,-0.00366,-30.03,9.030000000000001,-12.740000000000002,-0.34721613327487943,0.23936869793950022,0.026742656729504603
1745337455.2371106,0.905972,-0.022935999999999998,-0.102724,-6.965000000000001,2.0300000000000002,-1.435,-0.34721613327487943,0.23936869793950022,0.026742656729504603
1745337455.3171782,1.189988,-0.04392,-0.060756,13.335,-13.580000000000002,7.630000000000001,-0.34721613327487943,0.23936869793950022,0.026742656729504603
1745337455.3972762,1.336632,0.048068,-0.059292,20.720000000000002,-12.005,6.16,-0.34721613327487943,0.23936869793950022,0.026742656729504603
1745337455.4773424,1.2688,0.07002799999999999,0.22204,2.6950000000000003,-3.535,-5.32,-0.34721613327487943,0.23936869793950022,0.026742656729504603
1745337455.5574415,1.02968,0.104188,0.07002799999999999,1.715,-18.55,14.665000000000001,-0.34721613327487943,0.23936869793950022,0.026742656729504603
1745337455.6375048,0.865956,0.02318,0.099064,13.755,-2.765,23.905,-0.34721613327487943,0.23936869793950022,0.026742656729504603
1745337455.7176151,0.63318,0.024399999999999998,-0.008052,23.555000000000003,10.920000000000002,9.835,-0.34721613327487943,0.23936869793950022,0.026742656729504603
1745337455.7976656,0.739808,0.050752,-0.13054,19.67,7.840000000000001,1.435,-0.34721613327487943,0.23936869793950022,0.026742656729504603
1745337455.877768,0.977708,0.035868,-0.121512,0.9100000000000001,-0.35000000000000003,-2.5900000000000003,-0.33494081543182813,0.1060938185006576,-0.17536168347216133
1745337455.957833,1.266848,0.02928,-0.077592,-10.290000000000001,-5.1450000000000005,1.1900000000000002,-0.33494081543182813,0.1060938185006576,-0.17536168347216133
1745337456.0379314,1.359812,-0.024156,0.015616,-19.180000000000003,11.830000000000002,9.555000000000001,-0.33494081543182813,0.1060938185006576,-0.17536168347216133
1745337456.117999,1.0931199999999999,-0.14518,0.129076,-19.880000000000003,16.240000000000002,2.87,-0.33494081543182813,0.1060938185006576,-0.17536168347216133
1745337456.1980994,1.035536,-0.058804,0.131272,-4.9,7.910000000000001,-4.48,-0.33494081543182813,0.1060938185006576,-0.17536168347216133
1745337456.2781658,0.8127639999999999,-0.015372,0.062464,-8.190000000000001,17.92,-8.365,-0.33494081543182813,0.1060938185006576,-0.17536168347216133
1745337456.358264,0.819108,-0.025863999999999998,-0.0427,9.73,5.635000000000001,2.24,-0.33494081543182813,0.1060938185006576,-0.17536168347216133
1745337456.43833,1.022604,-0.114192,0.008052,23.660000000000004,-4.130000000000001,-1.995,-0.33494081543182813,0.1060938185006576,-0.17536168347216133
1745337456.518437,1.289296,0.0046359999999999995,-0.040748,35.385000000000005,-9.975000000000001,-2.0650000000000004,-0.33494081543182813,0.1060938185006576,-0.17536168347216133
1745337456.5985196,1.2780719999999999,0.027572,0.171288,20.125000000000004,11.200000000000001,-7.035000000000001,-0.33494081543182813,0.1060938185006576,-0.17536168347216133
1745337456.6785989,1.131916,0.117852,0.174704,6.4750000000000005,-9.415000000000001,-12.740000000000002,-0.33494081543182813,0.1060938185006576,-0.17536168347216133
1745337456.7586696,1.01382,0.05124,0.169092,4.235,-12.600000000000001,10.675,-0.33494081543182813,0.1060938185006576,-0.17536168347216133
1745337456.838765,0.6832,0.011467999999999999,0.097356,10.920000000000002,1.9250000000000003,7.840000000000001,-0.33494081543182813,0.1060938185006576,-0.17536168347216133
1745337456.9188333,0.571936,0.03294,-0.035868,10.255,-5.005000000000001,-4.375,-0.33494081543182813,0.1060938185006576,-0.17536168347216133
1745337456.998918,0.86254,0.083204,-0.094428,-5.495,-22.680000000000003,-5.460000000000001,-0.33494081543182813,0.1060938185006576,-0.17536168347216133
1745337457.0789943,1.3139399999999999,0.060024,-0.013908,-35.63,-21.07,-0.9100000000000001,-0.33494081543182813,0.1060938185006576,-0.17536168347216133
1745337457.1590896,1.50182,0.075884,0.102236,-48.790000000000006,12.355,15.05,-0.33494081543182813,0.1060938185006576,-0.17536168347216133
1745337457.2391577,1.02602,-0.11956,0.048799999999999996,-43.575,18.935000000000002,4.2700000000000005,-0.33494081543182813,0.1060938185006576,-0.17536168347216133
1745337457.3192546,0.951356,-0.039772,0.13298,-15.575000000000001,3.99,-18.200000000000003,-0.33494081543182813,0.1060938185006576,-0.17536168347216133
1745337457.399321,0.772504,-0.064416,0.053436,-13.090000000000002,8.260000000000002,-17.01,-0.33494081543182813,0.1060938185006576,-0.17536168347216133
1745337457.4794176,0.903532,-0.020007999999999998,-0.057583999999999996,2.415,3.115,2.9400000000000004,-0.3577378342832091,0.08329679964927664,-0.12845243314335816
1745337457.5594916,1.033584,-0.0060999999999999995,-0.064416,19.110000000000003,-4.2700000000000005,6.335000000000001,-0.3577378342832091,0.08329679964927664,-0.12845243314335816
1745337457.6410246,1.304668,0.06222,-0.032695999999999996,40.25000000000001,-14.525000000000002,5.495,-0.3577378342832091,0.08329679964927664,-0.12845243314335816
1745337457.7212267,1.390556,0.055388,0.212524,28.210000000000004,-8.225000000000001,-8.155000000000001,-0.3577378342832091,0.08329679964927664,-0.12845243314335816
1745337457.7997916,1.111176,0.129076,0.1586,-0.21000000000000002,-18.935000000000002,-18.900000000000002,-0.3577378342832091,0.08329679964927664,-0.12845243314335816
1745337457.879862,0.921588,0.049532,0.137372,-7.5600000000000005,-1.435,-1.0150000000000001,-0.3577378342832091,0.08329679964927664,-0.12845243314335816
1745337457.9599552,0.615368,0.063684,0.033184,7.210000000000001,16.1,5.180000000000001,-0.3577378342832091,0.08329679964927664,-0.12845243314335816
1745337458.0400276,0.686128,0.082472,-0.021471999999999998,19.67,3.8150000000000004,0.07,-0.3577378342832091,0.08329679964927664,-0.12845243314335816
1745337458.120122,0.972096,0.121268,-0.145424,26.355000000000004,-6.8950000000000005,-1.2950000000000002,-0.3577378342832091,0.08329679964927664,-0.12845243314335816
1745337458.2001941,1.1868159999999999,0.179096,-0.103212,24.220000000000002,-4.025,0.805,-0.3577378342832091,0.08329679964927664,-0.12845243314335816
1745337458.2802901,1.287588,0.014884,-0.059292,5.95,2.1350000000000002,6.300000000000001,-0.3577378342832091,0.08329679964927664,-0.12845243314335816
1745337458.3603601,1.169004,0.00366,0.17885199999999998,-12.145000000000001,14.21,18.725,-0.3577378342832091,0.08329679964927664,-0.12845243314335816
1745337458.440462,1.056032,-0.078812,0.15494,-19.145000000000003,-11.830000000000002,13.965000000000002,-0.3577378342832091,0.08329679964927664,-0.12845243314335816
1745337458.5205276,0.841556,-0.024644,0.110776,-17.64,1.7500000000000002,-3.8850000000000002,-0.3577378342832091,0.08329679964927664,-0.12845243314335816
1745337458.6006205,0.794952,-0.01464,-0.06831999999999999,-28.070000000000004,6.300000000000001,-6.44,-0.3577378342832091,0.08329679964927664,-0.12845243314335816
1745337458.68235,0.936716,-0.037087999999999996,-0.121268,-19.845000000000002,-2.8350000000000004,-1.715,-0.3577378342832091,0.08329679964927664,-0.12845243314335816
1745337458.7607663,1.2178039999999999,-0.025376,-0.078812,-7.7700000000000005,-10.920000000000002,7.245000000000001,-0.3577378342832091,0.08329679964927664,-0.12845243314335816
1745337458.8417602,1.37616,0.110044,0.01342,4.0600000000000005,-5.74,2.87,-0.3577378342832091,0.08329679964927664,-0.12845243314335816
1745337458.9209042,1.221708,0.075884,0.186416,2.66,-8.225000000000001,-8.435,-0.3577378342832091,0.08329679964927664,-0.12845243314335816
1745337459.0011675,1.026508,0.134688,0.10004,7.035000000000001,-19.775000000000002,-3.6050000000000004,-0.3577378342832091,0.08329679964927664,-0.12845243314335816
1745337459.081062,0.819596,0.010735999999999999,0.117852,11.9,5.880000000000001,-1.05,-0.3708899605436212,0.0648838228846997,-0.11573871109162648
1745337459.1611245,0.6439159999999999,0.012931999999999999,0.022203999999999998,17.605,23.310000000000002,-3.8150000000000004,-0.3708899605436212,0.0648838228846997,-0.11573871109162648
1745337459.2412057,0.773724,0.074664,-0.07198,11.585,13.72,1.7500000000000002,-0.3708899605436212,0.0648838228846997,-0.11573871109162648
1745337459.3212707,1.033828,0.10858,-0.113704,-1.54,4.2700000000000005,0.10500000000000001,-0.3708899605436212,0.0648838228846997,-0.11573871109162648
1745337459.4013503,1.28344,0.079544,-0.062708,-7.280000000000001,-8.33,1.33,-0.3708899605436212,0.0648838228846997,-0.11573871109162648
1745337459.4814146,1.346636,0.044407999999999996,0.073688,-15.015,-3.8150000000000004,11.48,-0.3708899605436212,0.0648838228846997,-0.11573871109162648
1745337459.5614989,1.07116,-0.084424,0.154696,-20.020000000000003,-10.115,8.05,-0.3708899605436212,0.0648838228846997,-0.11573871109162648
1745337459.6415613,0.966484,0.019032,0.143472,-7.315,-8.015,-7.210000000000001,-0.3708899605436212,0.0648838228846997,-0.11573871109162648
1745337459.7216475,0.734684,0.024156,-0.034892,-13.825000000000001,16.205000000000002,-14.700000000000001,-0.3708899605436212,0.0648838228846997,-0.11573871109162648
1745337459.8046389,0.876448,-0.028059999999999998,-0.070516,-5.74,9.870000000000001,-4.7250000000000005,-0.3708899605436212,0.0648838228846997,-0.11573871109162648
1745337459.8817985,1.04798,0.037576,-0.10467599999999999,7.910000000000001,-7.105,6.23,-0.3708899605436212,0.0648838228846997,-0.11573871109162648
1745337459.964056,1.299056,0.106872,-0.05246,21.28,-16.03,6.720000000000001,-0.3708899605436212,0.0648838228846997,-0.11573871109162648
1745337460.0419395,1.4234959999999999,0.163724,0.155184,21.840000000000003,-6.65,-3.3600000000000003,-0.3708899605436212,0.0648838228846997,-0.11573871109162648
1745337460.123452,1.057496,0.134444,0.0549,26.390000000000004,-22.435000000000002,0.10500000000000001,-0.3708899605436212,0.0648838228846997,-0.11573871109162648
1745337460.2020867,0.960872,0.123464,0.1159,28.140000000000004,-15.540000000000001,13.825000000000001,-0.3708899605436212,0.0648838228846997,-0.11573871109162648
1745337460.282878,0.673684,0.041724,0.07564,31.115000000000002,8.540000000000001,10.675,-0.3708899605436212,0.0648838228846997,-0.11573871109162648
1745337460.3622396,0.613904,0.07442,-0.069784,32.305,17.85,5.425000000000001,-0.3708899605436212,0.0648838228846997,-0.11573871109162648
1745337460.4423075,0.8842559999999999,0.10345599999999999,-0.127612,21.98,10.395000000000001,5.8100000000000005,-0.3708899605436212,0.0648838228846997,-0.11573871109162648
1745337460.5223818,1.2373239999999999,0.058072,-0.060024,11.585,2.6250000000000004,-0.525,-0.3708899605436212,0.0648838228846997,-0.11573871109162648
1745337460.607768,1.416664,0.019275999999999998,-0.038064,2.5900000000000003,-1.8900000000000001,4.970000000000001,-0.3708899605436212,0.0648838228846997,-0.11573871109162648
1745337460.6825297,1.214388,-0.069784,0.149328,-8.085,-1.5750000000000002,2.66,-0.36036825953529156,0.06313020604997809,-0.13897413415168786
1745337460.7626173,0.9638,-0.080764,0.075152,-11.13,-23.240000000000002,-3.0100000000000002,-0.36036825953529156,0.06313020604997809,-0.13897413415168786
1745337460.8426728,0.837164,0.0068319999999999995,0.100772,-23.17,3.9550000000000005,-10.71,-0.36036825953529156,0.06313020604997809,-0.13897413415168786
1745337460.9227715,0.8252079999999999,-0.002196,-0.099552,-21.105,10.605,-4.970000000000001,-0.36036825953529156,0.06313020604997809,-0.13897413415168786
1745337461.0028248,0.93696,-0.03294,-0.144692,-3.08,4.48,-0.8750000000000001,-0.36036825953529156,0.06313020604997809,-0.13897413415168786
1745337461.0829198,1.222928,0.000244,-0.071736,10.605,-9.030000000000001,7.035000000000001,-0.36036825953529156,0.06313020604997809,-0.13897413415168786
1745337461.1629739,1.2719719999999999,0.122732,-0.12444,9.31,-3.99,-3.3950000000000005,-0.36036825953529156,0.06313020604997809,-0.13897413415168786
1745337461.2430685,1.248304,0.111264,0.175436,0.9800000000000001,-4.165,-16.205000000000002,-0.36036825953529156,0.06313020604997809,-0.13897413415168786
1745337461.3231242,1.0377319999999999,0.152012,0.104188,10.675,-14.350000000000001,-2.24,-0.36036825953529156,0.06313020604997809,-0.13897413415168786
1745337461.4032216,0.826184,0.12688,0.087596,18.55,10.500000000000002,7.105,-0.36036825953529156,0.06313020604997809,-0.13897413415168786
1745337461.4832733,0.657092,0.068564,-0.0075639999999999995,26.950000000000003,21.700000000000003,-2.2750000000000004,-0.36036825953529156,0.06313020604997809,-0.13897413415168786
1745337461.5633662,0.722728,0.088084,-0.079788,30.94,9.555000000000001,-1.7500000000000002,-0.36036825953529156,0.06313020604997809,-0.13897413415168786
1745337461.6434214,1.067988,0.160552,-0.13908,28.000000000000004,-13.440000000000001,19.005000000000003,-0.36036825953529156,0.06313020604997809,-0.13897413415168786
1745337461.72351,1.203164,-0.056852,-0.116876,8.785,-6.335000000000001,12.985000000000001,-0.36036825953529156,0.06313020604997809,-0.13897413415168786
1745337461.8035657,1.361032,-0.10760399999999999,-0.060024,-8.855,10.500000000000002,-4.865,-0.36036825953529156,0.06313020604997809,-0.13897413415168786
1745337461.8836582,1.106052,-0.084668,0.187148,-21.595000000000002,12.250000000000002,6.055000000000001,-0.36036825953529156,0.06313020604997809,-0.13897413415168786
1745337461.9637136,0.971608,0.006344,0.063196,-6.965000000000001,0.665,3.4650000000000003,-0.36036825953529156,0.06313020604997809,-0.13897413415168786
1745337462.043815,0.804712,-0.041236,0.033428,-21.14,8.4,-24.150000000000002,-0.36036825953529156,0.06313020604997809,-0.13897413415168786
1745337462.1238704,0.820084,-0.046848,-0.095648,-29.19,-2.3800000000000003,-4.795000000000001,-0.36036825953529156,0.06313020604997809,-0.13897413415168786
1745337462.203967,1.076528,-0.01586,-0.078812,-21.98,-9.765,-1.5050000000000001,-0.36036825953529156,0.06313020604997809,-0.13897413415168786
1745337462.2840211,1.3729879999999999,0.054655999999999996,-0.0068319999999999995,-8.75,-8.295,14.525000000000002,-0.3796580447172293,0.04208680403331872,-0.1429197720298115
1745337462.364118,1.232688,0.123464,0.102968,3.7100000000000004,13.370000000000001,11.830000000000002,-0.3796580447172293,0.04208680403331872,-0.1429197720298115
1745337462.4441721,1.103856,0.113704,0.22569999999999998,18.76,1.9600000000000002,10.920000000000002,-0.3796580447172293,0.04208680403331872,-0.1429197720298115
1745337462.5242686,0.92476,0.11516799999999999,0.17299599999999998,22.715000000000003,5.075,13.685,-0.3796580447172293,0.04208680403331872,-0.1429197720298115
1745337462.604324,0.725412,0.040015999999999996,0.053191999999999996,16.065,9.8,7.595000000000001,-0.3796580447172293,0.04208680403331872,-0.1429197720298115
1745337462.6844163,0.717604,0.060268,-0.02562,6.720000000000001,4.48,5.775,-0.3796580447172293,0.04208680403331872,-0.1429197720298115
1745337462.7659116,0.841312,0.075396,-0.069296,-6.125000000000001,1.8200000000000003,-3.325,-0.3796580447172293,0.04208680403331872,-0.1429197720298115
1745337462.8446589,1.164612,0.100284,-0.05368,-9.100000000000001,-11.270000000000001,-15.400000000000002,-0.3796580447172293,0.04208680403331872,-0.1429197720298115
1745337462.9246638,1.359812,0.08003199999999999,-0.061,-8.505,-10.99,-12.250000000000002,-0.3796580447172293,0.04208680403331872,-0.1429197720298115
1745337463.0047765,1.252208,-0.020739999999999998,0.142008,3.22,-0.77,2.345,-0.3796580447172293,0.04208680403331872,-0.1429197720298115
1745337463.0848308,1.072868,-0.008784,0.119804,15.820000000000002,-24.500000000000004,-2.1350000000000002,-0.3796580447172293,0.04208680403331872,-0.1429197720298115
1745337463.164926,0.632448,-0.00122,0.09516,-25.410000000000004,17.395000000000003,-3.7800000000000002,-0.3796580447172293,0.04208680403331872,-0.1429197720298115
1745337463.244995,0.764208,-0.048068,-0.105408,-28.665000000000003,2.2750000000000004,-9.450000000000001,-0.3796580447172293,0.04208680403331872,-0.1429197720298115
1745337463.3250892,1.029436,0.042456,-0.0915,-25.900000000000002,-9.590000000000002,-15.400000000000002,-0.3796580447172293,0.04208680403331872,-0.1429197720298115
1745337463.4051552,1.257088,0.082228,-0.076616,-19.740000000000002,-16.415000000000003,-4.865,-0.3796580447172293,0.04208680403331872,-0.1429197720298115
1745337463.4852543,1.3273599999999999,0.122732,-0.050263999999999996,-3.8500000000000005,-8.05,-1.435,-0.3796580447172293,0.04208680403331872,-0.1429197720298115
1745337463.5653174,1.149972,0.20496,0.159088,11.06,-14.385000000000002,-2.765,-0.3796580447172293,0.04208680403331872,-0.1429197720298115
1745337463.6454167,1.041148,0.133956,0.14274,1.4700000000000002,-16.345000000000002,11.97,-0.3796580447172293,0.04208680403331872,-0.1429197720298115
1745337463.725478,0.747616,0.072956,0.0183,-3.3600000000000003,3.8850000000000002,9.24,-0.3796580447172293,0.04208680403331872,-0.1429197720298115
1745337463.805572,0.634644,0.048312,-0.07442,-9.345,7.385000000000001,10.500000000000002,-0.3796580447172293,0.05962297238053485,-0.11003945637878124
1745337463.8856432,0.785192,0.115412,-0.070272,-18.445,-0.31500000000000006,3.325,-0.3796580447172293,0.05962297238053485,-0.11003945637878124
1745337463.96573,1.073844,0.152744,-0.108336,-21.000000000000004,-2.87,0.10500000000000001,-0.3796580447172293,0.05962297238053485,-0.11003945637878124
1745337464.0458026,1.261724,0.163724,-0.144204,-18.900000000000002,3.0450000000000004,12.81,-0.3796580447172293,0.05962297238053485,-0.11003945637878124
1745337464.1258895,1.350052,0.009028,0.081008,-11.025,6.825000000000001,17.01,-0.3796580447172293,0.05962297238053485,-0.11003945637878124
1745337464.2059615,1.131916,-0.060268,0.026352,1.715,-23.695000000000004,-3.22,-0.3796580447172293,0.05962297238053485,-0.11003945637878124
1745337464.2860508,0.650504,0.041968,0.051727999999999996,-19.040000000000003,4.69,-17.990000000000002,-0.3796580447172293,0.05962297238053485,-0.11003945637878124
1745337464.3661203,0.614636,-0.028059999999999998,-0.17934,-25.585,19.355,-16.1,-0.3796580447172293,0.05962297238053485,-0.11003945637878124
1745337464.4462228,0.976,0.10345599999999999,-0.17812,-2.0300000000000002,2.87,-10.850000000000001,-0.3796580447172293,0.05962297238053485,-0.11003945637878124
1745337464.5262852,1.214388,0.076616,-0.162748,11.375000000000002,-11.270000000000001,-0.49000000000000005,-0.3796580447172293,0.05962297238053485,-0.11003945637878124
1745337464.6063788,1.366156,0.187636,-0.12566,20.37,-5.215000000000001,-3.535,-0.3796580447172293,0.05962297238053485,-0.11003945637878124
1745337464.6864412,1.230492,0.181048,0.110776,19.285,-1.155,-9.905000000000001,-0.3796580447172293,0.05962297238053485,-0.11003945637878124
1745337464.7665572,1.074576,0.200568,0.027572,20.860000000000003,-17.605,2.45,-0.3796580447172293,0.05962297238053485,-0.11003945637878124
1745337464.8466218,0.7634759999999999,0.149816,-0.000488,32.34,5.215000000000001,7.700000000000001,-0.3796580447172293,0.05962297238053485,-0.11003945637878124
1745337464.9267094,0.615124,0.063684,-0.111752,37.48500000000001,3.325,6.405,-0.3796580447172293,0.05962297238053485,-0.11003945637878124
1745337465.006782,0.699304,0.09759999999999999,-0.09759999999999999,18.130000000000003,-5.040000000000001,2.975,-0.3796580447172293,0.05962297238053485,-0.11003945637878124
1745337465.0868745,1.054324,0.153964,-0.151524,-4.025,-8.540000000000001,-2.1700000000000004,-0.3796580447172293,0.05962297238053485,-0.11003945637878124
1745337465.1669471,1.261236,0.188612,-0.29548399999999997,-10.71,-1.7850000000000001,0.6300000000000001,-0.3796580447172293,0.05962297238053485,-0.11003945637878124
1745337465.2470343,1.326384,0.133468,-0.175924,4.585000000000001,8.96,16.275000000000002,-0.3796580447172293,0.05962297238053485,-0.11003945637878124
1745337465.3271074,1.082628,0.025131999999999998,0.094916,5.215000000000001,-3.9200000000000004,13.965000000000002,-0.3796580447172293,0.05962297238053485,-0.11003945637878124
1745337465.4071968,0.777628,0.042212,0.0075639999999999995,-24.290000000000003,8.190000000000001,-20.720000000000002,-0.4094695309074967,0.028057869355545814,-0.09601052170100834
1745337465.4872675,0.56974,-0.005612,-0.162504,-33.46,21.385,-4.970000000000001,-0.4094695309074967,0.028057869355545814,-0.09601052170100834
1745337465.5673575,0.840824,0.043188,-0.17812,-26.215000000000003,13.510000000000002,-10.745000000000001,-0.4094695309074967,0.028057869355545814,-0.09601052170100834
1745337465.6492221,1.1216679999999999,0.10248,-0.150548,-9.625000000000002,5.495,-1.54,-0.4094695309074967,0.028057869355545814,-0.09601052170100834
1745337465.7275174,1.318088,0.210816,-0.17299599999999998,8.82,-0.8400000000000001,-0.10500000000000001,-0.4094695309074967,0.028057869355545814,-0.09601052170100834
1745337465.8086421,1.304424,0.1891,0.152744,7.000000000000001,17.92,-10.325000000000001,-0.4094695309074967,0.028057869355545814,-0.09601052170100834
1745337465.8876786,1.120692,0.291336,0.15372,11.095,1.0850000000000002,-7.245000000000001,-0.4094695309074967,0.028057869355545814,-0.09601052170100834
1745337465.9680743,0.874008,0.1769,0.041724,9.030000000000001,6.615,8.680000000000001,-0.4094695309074967,0.028057869355545814,-0.09601052170100834
1745337466.047842,0.761524,0.09516,-0.019275999999999998,14.14,16.03,8.365,-0.4094695309074967,0.028057869355545814,-0.09601052170100834
1745337466.1279109,0.5392399999999999,0.231312,-0.188368,27.650000000000002,-4.41,22.925,-0.4094695309074967,0.028057869355545814,-0.09601052170100834
1745337466.208,0.912072,0.200324,-0.09272,17.430000000000003,-24.185000000000002,-17.535,-0.4094695309074967,0.028057869355545814,-0.09601052170100834
1745337466.2880723,1.140944,0.180804,-0.129076,6.510000000000001,-14.770000000000001,-5.95,-0.4094695309074967,0.028057869355545814,-0.09601052170100834
1745337466.3681657,1.3395599999999999,0.169336,-0.127124,0.9100000000000001,5.250000000000001,9.030000000000001,-0.4094695309074967,0.028057869355545814,-0.09601052170100834
1745337466.4482338,1.2383,0.048556,0.14835199999999998,-10.045000000000002,30.905000000000005,0.49000000000000005,-0.4094695309074967,0.028057869355545814,-0.09601052170100834
1745337466.528322,0.868884,0.19983599999999999,0.040504,-28.875000000000004,6.580000000000001,-17.57,-0.4094695309074967,0.028057869355545814,-0.09601052170100834
1745337466.611357,0.6832,-0.012199999999999999,-0.159576,-43.505,-11.620000000000001,-10.99,-0.4094695309074967,0.028057869355545814,-0.09601052170100834
1745337466.6884854,0.71004,0.063684,-0.072956,-28.945000000000004,-21.560000000000002,-8.575000000000001,-0.4094695309074967,0.028057869355545814,-0.09601052170100834
1745337466.771515,0.940864,0.16713999999999998,-0.069052,-1.7850000000000001,-15.155000000000001,12.88,-0.4094695309074967,0.028057869355545814,-0.09601052170100834
1745337466.8486495,1.289296,0.18348799999999998,-0.14005599999999999,7.000000000000001,2.975,14.490000000000002,-0.4094695309074967,0.028057869355545814,-0.09601052170100834
1745337466.9316823,1.331996,0.26108,0.07808,-2.9050000000000002,29.610000000000003,-7.315,-0.40245506356861027,0.03419552827707146,-0.17404647084612013
1745337467.0088174,1.087508,0.248148,0.173484,3.99,16.17,-4.305000000000001,-0.40245506356861027,0.03419552827707146,-0.17404647084612013
1745337467.091851,0.85522,0.183976,0.02196,9.590000000000002,3.99,17.115000000000002,-0.40245506356861027,0.03419552827707146,-0.17404647084612013
1745337467.168982,0.70272,0.081496,0.101992,16.485000000000003,18.795,30.520000000000003,-0.40245506356861027,0.03419552827707146,-0.17404647084612013
1745337467.2520158,0.652944,0.07124799999999999,0.054655999999999996,19.39,14.875000000000002,24.430000000000003,-0.40245506356861027,0.03419552827707146,-0.17404647084612013
1745337467.3291478,0.876692,0.104432,-0.10248,10.430000000000001,-1.1900000000000002,13.475000000000001,-0.40245506356861027,0.03419552827707146,-0.17404647084612013
1745337467.412177,1.036756,0.12224399999999999,-0.027084,-1.0850000000000002,2.205,13.23,-0.40245506356861027,0.03419552827707146,-0.17404647084612013
1745337467.4893053,1.384944,0.069296,0.065636,-11.06,-2.8350000000000004,-1.05,-0.40245506356861027,0.03419552827707146,-0.17404647084612013
1745337467.5723538,1.237568,-0.055632,0.17763199999999998,-21.000000000000004,21.35,-17.220000000000002,-0.40245506356861027,0.03419552827707146,-0.17404647084612013
1745337467.6494644,1.037,-0.054655999999999996,0.196176,-7.910000000000001,-11.270000000000001,-3.8500000000000005,-0.40245506356861027,0.03419552827707146,-0.17404647084612013
1745337467.7295601,0.8052,0.054655999999999996,0.075396,-7.385000000000001,-6.65,-6.6850000000000005,-0.40245506356861027,0.03419552827707146,-0.17404647084612013
1745337467.809621,0.753472,0.075396,-0.014884,-8.82,-19.46,-8.96,-0.40245506356861027,0.03419552827707146,-0.17404647084612013
1745337467.8911695,0.961604,0.062464,-0.063684,-15.120000000000001,-44.31,-8.155000000000001,-0.40245506356861027,0.03419552827707146,-0.17404647084612013
1745337467.969809,1.211948,0.15298799999999999,-0.1586,-14.945000000000002,-38.57,-1.4000000000000001,-0.40245506356861027,0.03419552827707146,-0.17404647084612013
1745337468.049899,1.342244,0.207888,-0.069296,-7.420000000000001,8.575000000000001,4.48,-0.40245506356861027,0.03419552827707146,-0.17404647084612013
1745337468.129962,1.074576,0.184464,0.1281,-1.435,54.95,1.5050000000000001,-0.40245506356861027,0.03419552827707146,-0.17404647084612013
1745337468.2100668,1.020652,0.172752,0.09881999999999999,14.280000000000001,-1.8900000000000001,1.2950000000000002,-0.40245506356861027,0.03419552827707146,-0.17404647084612013
1745337468.2901318,0.9384239999999999,0.168116,0.046604,26.250000000000004,4.48,1.715,-0.40245506356861027,0.03419552827707146,-0.17404647084612013
1745337468.3702261,0.7412719999999999,0.153232,0.021471999999999998,26.740000000000002,32.23500000000001,17.57,-0.40245506356861027,0.03419552827707146,-0.17404647084612013
1745337468.4502966,0.8078839999999999,0.156648,0.0068319999999999995,24.815,20.160000000000004,20.51,-0.40245506356861027,0.03419552827707146,-0.17404647084612013
1745337468.5304003,1.010404,0.164944,0.020252,19.46,-3.9200000000000004,14.700000000000001,-0.4585708022797019,0.2209557211749233,-0.20692678649715038
1745337468.610466,1.13582,0.154452,0.02562,5.53,-12.145000000000001,2.8350000000000004,-0.4585708022797019,0.2209557211749233,-0.20692678649715038
1745337468.6905625,1.3656679999999999,0.136396,0.10174799999999999,-7.315,8.610000000000001,-7.105,-0.4585708022797019,0.2209557211749233,-0.20692678649715038
1745337468.770633,1.0735999999999999,-0.009271999999999999,0.205204,-2.9400000000000004,28.840000000000003,0.31500000000000006,-0.4585708022797019,0.2209557211749233,-0.20692678649715038
1745337468.850735,0.74786,0.07710399999999999,0.118584,18.48,1.33,-7.035000000000001,-0.4585708022797019,0.2209557211749233,-0.20692678649715038
1745337468.9308012,0.733708,0.056119999999999996,0.017568,12.425,-7.5600000000000005,-3.115,-0.4585708022797019,0.2209557211749233,-0.20692678649715038
1745337469.0108933,0.928908,0.033916,-0.0053679999999999995,5.285,-3.6400000000000006,11.445,-0.4585708022797019,0.2209557211749233,-0.20692678649715038
1745337469.09096,1.039196,0.096868,0.07002799999999999,8.33,8.855,18.41,-0.4585708022797019,0.2209557211749233,-0.20692678649715038
1745337469.1710558,1.25538,0.116876,0.10004,17.220000000000002,-10.675,9.24,-0.4585708022797019,0.2209557211749233,-0.20692678649715038
1745337469.2511234,1.244888,0.195444,0.200324,30.380000000000003,7.735,-4.655,-0.4585708022797019,0.2209557211749233,-0.20692678649715038
1745337469.331223,1.173152,0.187148,0.223748,40.39,9.8,-3.115,-0.4585708022797019,0.2209557211749233,-0.20692678649715038
1745337469.4112916,0.765428,0.11053199999999999,0.165188,46.13,14.315000000000001,-5.390000000000001,-0.4585708022797019,0.2209557211749233,-0.20692678649715038
1745337469.49139,0.679052,0.055388,0.104432,43.015,-0.45500000000000007,2.1,-0.4585708022797019,0.2209557211749233,-0.20692678649715038
1745337469.5714607,0.763964,-0.017324,0.052948,37.24,-6.16,19.145000000000003,-0.4585708022797019,0.2209557211749233,-0.20692678649715038
1745337469.651552,0.9821,-0.010492,0.054655999999999996,32.23500000000001,-0.9450000000000001,20.685000000000002,-0.4585708022797019,0.2209557211749233,-0.20692678649715038
1745337469.7316236,1.166564,0.029036,0.11809599999999999,13.475000000000001,5.845000000000001,13.335,-0.4585708022797019,0.2209557211749233,-0.20692678649715038
1745337469.8117144,1.3285799999999999,-0.008296,0.151768,-5.6000000000000005,1.715,-0.6300000000000001,-0.4585708022797019,0.2209557211749233,-0.20692678649715038
1745337469.8917847,1.0894599999999999,-0.05368,0.258396,-21.315,30.835000000000004,-14.455000000000002,-0.4585708022797019,0.2209557211749233,-0.20692678649715038
1745337469.971871,0.736636,0.007808,0.24766,-29.505000000000003,16.240000000000002,-23.310000000000002,-0.4585708022797019,0.2209557211749233,-0.20692678649715038
1745337470.0519345,0.746152,0.006588,0.079788,-41.685,-4.41,-19.775000000000002,-0.4585708022797019,0.2209557211749233,-0.20692678649715038
1745337470.1320198,0.8842559999999999,0.039528,0.04026,-34.055,-21.315,-6.265000000000001,-0.4296361245067953,0.0648838228846997,-0.14116615519508988
1745337470.212082,1.11264,0.050996,0.11712,-23.590000000000003,-19.740000000000002,5.95,-0.4296361245067953,0.0648838228846997,-0.14116615519508988
1745337470.2921765,1.134844,0.091256,0.18226799999999999,-6.86,-6.4750000000000005,9.345,-0.4296361245067953,0.0648838228846997,-0.14116615519508988
1745337470.3722446,1.369816,0.154696,0.267912,12.845,-14.455000000000002,1.5050000000000001,-0.4296361245067953,0.0648838228846997,-0.14116615519508988
1745337470.4523375,1.13094,0.185684,0.23546,22.750000000000004,-11.830000000000002,-1.3650000000000002,-0.4296361245067953,0.0648838228846997,-0.14116615519508988
1745337470.5324116,0.865468,0.127612,0.132492,22.540000000000003,-13.930000000000001,3.6400000000000006,-0.4296361245067953,0.0648838228846997,-0.14116615519508988
1745337470.6124983,0.699792,0.030744,0.050508,15.995000000000001,-7.910000000000001,10.255,-0.4296361245067953,0.0648838228846997,-0.14116615519508988
1745337470.6955333,0.739808,0.014884,0.010735999999999999,8.89,0.24500000000000002,14.035000000000002,-0.4296361245067953,0.0648838228846997,-0.14116615519508988
1745337470.7726653,0.907924,0.021228,0.00366,1.61,13.475000000000001,8.82,-0.4296361245067953,0.0648838228846997,-0.14116615519508988
1745337470.8557236,1.114592,0.060756,0.131272,-4.305000000000001,18.060000000000002,4.340000000000001,-0.4296361245067953,0.0648838228846997,-0.14116615519508988
1745337470.9328277,1.324188,0.002196,0.213744,-11.200000000000001,12.705000000000002,0.9450000000000001,-0.4296361245067953,0.0648838228846997,-0.14116615519508988
1745337471.0158863,1.117276,-0.034159999999999996,0.29792399999999997,-18.585,32.2,0.6300000000000001,-0.4296361245067953,0.0648838228846997,-0.14116615519508988
1745337471.0929964,0.79666,-0.011224,0.152012,-32.23500000000001,9.345,-23.87,-0.4296361245067953,0.0648838228846997,-0.14116615519508988
1745337471.1760325,0.75518,0.042212,0.090768,-22.470000000000002,-4.9,-22.365000000000002,-0.4296361245067953,0.0648838228846997,-0.14116615519508988
1745337471.2531705,0.854244,0.02928,0.08784,-17.92,-11.620000000000001,-11.13,-0.4296361245067953,0.0648838228846997,-0.14116615519508988
1745337471.3362045,1.057252,0.079544,0.152744,-11.795000000000002,1.0150000000000001,-1.435,-0.4296361245067953,0.0648838228846997,-0.14116615519508988
1745337471.4133368,1.144604,0.124928,0.218868,4.095000000000001,-12.530000000000001,1.3650000000000002,-0.4296361245067953,0.0648838228846997,-0.14116615519508988
1745337471.4963799,1.380552,0.17641199999999999,0.267668,21.35,-24.955000000000002,0.9100000000000001,-0.4296361245067953,0.0648838228846997,-0.14116615519508988
1745337471.5735102,1.023092,0.193004,0.27694,22.015,21.735000000000003,-2.87,-0.4296361245067953,0.0648838228846997,-0.14116615519508988
1745337471.6565506,0.83814,0.127856,0.255956,14.035000000000002,28.385,1.9600000000000002,-0.4296361245067953,0.0648838228846997,-0.14116615519508988
1745337471.7336614,0.669536,0.071736,0.172752,13.965000000000002,13.125000000000002,9.625000000000002,-0.3551074090311267,0.01052170100832968,-0.22314774221832528
1745337471.813765,0.776408,0.07710399999999999,0.060756,18.130000000000003,-8.05,17.675,-0.3551074090311267,0.01052170100832968,-0.22314774221832528
1745337471.8938262,0.948916,0.099796,0.091988,11.55,-5.6000000000000005,12.145000000000001,-0.3551074090311267,0.01052170100832968,-0.22314774221832528
1745337471.973931,1.12728,0.07686,0.204472,-0.14,-4.235,1.155,-0.3551074090311267,0.01052170100832968,-0.22314774221832528
1745337472.0539954,1.245864,0.013176,0.239364,-10.430000000000001,-13.755,-7.07,-0.3551074090311267,0.01052170100832968,-0.22314774221832528
1745337472.1340969,1.175592,-0.004392,0.30963599999999997,-19.915000000000003,6.755000000000001,-5.040000000000001,-0.3551074090311267,0.01052170100832968,-0.22314774221832528
1745337472.2141633,0.776652,0.024399999999999998,0.18812399999999999,-27.405,7.735,-11.725000000000001,-0.3551074090311267,0.01052170100832968,-0.22314774221832528
1745337472.2942646,0.725656,0.040748,0.120292,-25.165000000000003,0.49000000000000005,-14.560000000000002,-0.3551074090311267,0.01052170100832968,-0.22314774221832528
1745337472.374328,0.85034,0.02196,0.10638399999999999,-23.135,-12.005,-7.98,-0.3551074090311267,0.01052170100832968,-0.22314774221832528
1745337472.4544346,1.02846,0.050752,0.162504,-20.3,-9.555000000000001,4.2700000000000005,-0.3551074090311267,0.01052170100832968,-0.22314774221832528
1745337472.534517,1.126304,0.082716,0.255468,-9.765,-11.9,8.855,-0.3551074090311267,0.01052170100832968,-0.22314774221832528
1745337472.6146047,1.35542,0.137616,0.35502,9.625000000000002,-5.845000000000001,9.100000000000001,-0.3551074090311267,0.01052170100832968,-0.22314774221832528
1745337472.6946692,1.077992,0.18544,0.298656,22.12,17.605,8.33,-0.3551074090311267,0.01052170100832968,-0.22314774221832528
1745337472.7747664,0.876692,0.175436,0.243756,30.450000000000003,17.5,5.6000000000000005,-0.3551074090311267,0.01052170100832968,-0.22314774221832528
1745337472.8548307,0.696376,0.07808,0.143472,27.020000000000003,5.915000000000001,12.110000000000001,-0.3551074090311267,0.01052170100832968,-0.22314774221832528
1745337472.9349232,0.749568,0.044652,0.08588799999999999,18.585,-12.145000000000001,19.110000000000003,-0.3551074090311267,0.01052170100832968,-0.22314774221832528
1745337473.0164201,0.9372039999999999,0.028059999999999998,0.078324,10.815000000000001,-16.66,15.330000000000002,-0.3551074090311267,0.01052170100832968,-0.22314774221832528
1745337473.095089,1.137284,0.004148,0.180316,-0.7000000000000001,-11.760000000000002,11.200000000000001,-0.3551074090311267,0.01052170100832968,-0.22314774221832528
1745337473.1751451,1.23464,-0.02318,0.222772,-13.195000000000002,-4.305000000000001,-0.5950000000000001,-0.3551074090311267,0.01052170100832968,-0.22314774221832528
1745337473.255229,1.191208,-0.0854,0.3233,-24.92,22.820000000000004,-1.7500000000000002,-0.3551074090311267,0.01052170100832968,-0.22314774221832528
1745337473.3352897,0.748348,0.034892,0.215696,-26.250000000000004,13.860000000000001,-20.895000000000003,-0.3314335817623849,0.04734765453748356,-0.22007891275756247
1745337473.4153812,0.72102,0.060756,0.103944,-24.185000000000002,-12.39,-27.265000000000004,-0.3314335817623849,0.04734765453748356,-0.22007891275756247
1745337473.4954414,0.8361879999999999,0.001952,0.081984,-22.155,-14.21,-15.47,-0.3314335817623849,0.04734765453748356,-0.22007891275756247
1745337473.5755353,1.032364,-0.002928,0.169092,-12.250000000000002,-11.935,2.205,-0.3314335817623849,0.04734765453748356,-0.22007891275756247
1745337473.6555963,1.136796,0.04514,0.197884,5.985,-18.165000000000003,6.335000000000001,-0.3314335817623849,0.04734765453748356,-0.22007891275756247
1745337473.735691,1.401292,0.101504,0.29646,24.990000000000002,-9.170000000000002,5.040000000000001,-0.3314335817623849,0.04734765453748356,-0.22007891275756247
1745337473.8157449,1.051396,0.146644,0.28548,32.2,19.67,7.280000000000001,-0.3314335817623849,0.04734765453748356,-0.22007891275756247
1745337473.8958404,0.954772,0.11468,0.235948,30.730000000000004,5.495,9.135000000000002,-0.3314335817623849,0.04734765453748356,-0.22007891275756247
1745337473.9759066,0.679296,0.051484,0.162992,23.8,6.86,10.22,-0.3314335817623849,0.04734765453748356,-0.22007891275756247
1745337474.0559833,0.700768,0.040748,0.08906,17.535,-11.725000000000001,21.560000000000002,-0.3314335817623849,0.04734765453748356,-0.22007891275756247
1745337474.1360443,0.877912,0.068808,0.053924,8.82,-11.620000000000001,24.815,-0.3314335817623849,0.04734765453748356,-0.22007891275756247
1745337474.2161307,1.1326479999999999,-0.010003999999999999,0.15372,-3.2550000000000003,-0.525,12.005,-0.3314335817623849,0.04734765453748356,-0.22007891275756247
1745337474.2961884,1.205848,-0.081252,0.198616,-10.080000000000002,-1.5750000000000002,-2.1,-0.3314335817623849,0.04734765453748356,-0.22007891275756247
1745337474.3762796,1.347856,-0.102724,0.34233199999999997,-15.575000000000001,17.220000000000002,-1.8900000000000001,-0.3314335817623849,0.04734765453748356,-0.22007891275756247
1745337474.4563506,0.9977159999999999,-0.046116,0.228628,-20.44,-0.56,-14.245000000000001,-0.3314335817623849,0.04734765453748356,-0.22007891275756247
1745337474.5364332,0.71614,-0.010735999999999999,0.143472,-22.470000000000002,-7.385000000000001,-21.840000000000003,-0.3314335817623849,0.04734765453748356,-0.22007891275756247
1745337474.6164906,0.7746999999999999,-0.024644,0.09467199999999999,-20.055000000000003,-13.860000000000001,-17.465000000000003,-0.3314335817623849,0.04734765453748356,-0.22007891275756247
1745337474.6965775,0.926468,-0.044164,0.084912,-13.265,-10.010000000000002,0.9450000000000001,-0.3314335817623849,0.04734765453748356,-0.22007891275756247
1745337474.776636,1.111176,0.00366,0.164212,5.460000000000001,-4.9350000000000005,9.940000000000001,-0.3314335817623849,0.04734765453748356,-0.22007891275756247
1745337474.856736,1.258552,0.056364,0.204472,19.215000000000003,-0.9100000000000001,5.040000000000001,-0.3314335817623849,0.04734765453748356,-0.22007891275756247
1745337474.9367907,1.14802,0.15006,0.33794,28.455000000000002,24.465000000000003,-11.445,-0.34458570802279703,0.03770276194651469,-0.22753178430512933
1745337475.0168774,1.103124,0.110288,0.30963599999999997,26.075000000000003,14.280000000000001,-4.760000000000001,-0.34458570802279703,0.03770276194651469,-0.22753178430512933
1745337475.0969381,0.768356,-0.0183,0.200568,18.235000000000003,17.01,4.025,-0.34458570802279703,0.03770276194651469,-0.22753178430512933
1745337475.1770208,0.739808,-0.023912,0.130052,13.23,-6.195,13.650000000000002,-0.34458570802279703,0.03770276194651469,-0.22753178430512933
1745337475.257083,0.81618,0.002196,0.09467199999999999,9.870000000000001,-13.475000000000001,20.860000000000003,-0.34458570802279703,0.03770276194651469,-0.22753178430512933
1745337475.3371637,1.000888,0.00366,0.134932,5.915000000000001,-11.165000000000001,18.865000000000002,-0.34458570802279703,0.03770276194651469,-0.22753178430512933
1745337475.4172277,1.15168,-0.037332,0.208864,-4.095000000000001,-13.685,10.675,-0.34458570802279703,0.03770276194651469,-0.22753178430512933
1745337475.4973142,1.413248,-0.098088,0.307684,-18.130000000000003,-7.665000000000001,0.28,-0.34458570802279703,0.03770276194651469,-0.22753178430512933
1745337475.5773792,0.9940559999999999,-0.114436,0.29792399999999997,-30.135,7.455000000000001,-16.625,-0.34458570802279703,0.03770276194651469,-0.22753178430512933
1745337475.657461,0.6895439999999999,0.013908,0.18544,-29.26,13.370000000000001,-26.775000000000002,-0.34458570802279703,0.03770276194651469,-0.22753178430512933
1745337475.737534,0.724924,0.024156,0.117608,-23.485000000000003,-9.31,-27.650000000000002,-0.34458570802279703,0.03770276194651469,-0.22753178430512933
1745337475.817645,0.871812,-0.001952,0.10467599999999999,-18.830000000000002,-10.080000000000002,-10.57,-0.34458570802279703,0.03770276194651469,-0.22753178430512933
1745337475.8977,1.091168,-0.026108,0.167872,-6.790000000000001,-5.460000000000001,10.430000000000001,-0.34458570802279703,0.03770276194651469,-0.22753178430512933
1745337475.977784,1.200724,-0.016104,0.223748,10.500000000000002,-9.835,15.645000000000001,-0.34458570802279703,0.03770276194651469,-0.22753178430512933
1745337476.0578523,1.283928,0.083204,0.350628,27.37,6.790000000000001,5.775,-0.34458570802279703,0.03770276194651469,-0.22753178430512933
1745337476.1379395,1.097512,0.11931599999999999,0.340136,29.960000000000004,12.46,3.6050000000000004,-0.34458570802279703,0.03770276194651469,-0.22753178430512933
1745337476.2180078,0.874008,0.07002799999999999,0.278404,26.950000000000003,11.655000000000001,0.035,-0.34458570802279703,0.03770276194651469,-0.22753178430512933
1745337476.2980945,0.663192,0.020007999999999998,0.151768,19.355,-3.08,8.610000000000001,-0.34458570802279703,0.03770276194651469,-0.22753178430512933
1745337476.3781624,0.75884,-0.017079999999999998,0.092232,11.025,-12.705000000000002,14.875000000000002,-0.34458570802279703,0.03770276194651469,-0.22753178430512933
1745337476.45826,0.9435479999999999,0.000976,0.117852,5.635000000000001,-1.0850000000000002,13.405000000000001,-0.34458570802279703,0.03770276194651469,-0.22753178430512933
1745337476.5383334,1.144116,-0.03172,0.214232,-1.5050000000000001,-8.540000000000001,13.475000000000001,-0.3305567733450241,0.058746163963174045,-0.2240245506356861
1745337476.6184247,1.29564,-0.059047999999999996,0.260104,-13.615000000000002,-10.64,0.31500000000000006,-0.3305567733450241,0.058746163963174045,-0.2240245506356861
1745337476.698519,1.074576,-0.096868,0.3477,-32.550000000000004,23.065,-10.885000000000002,-0.3305567733450241,0.058746163963174045,-0.2240245506356861
1745337476.778592,0.740296,-0.0305,0.17641199999999999,-38.50000000000001,5.285,-20.790000000000003,-0.3305567733450241,0.058746163963174045,-0.2240245506356861
1745337476.8610022,0.726876,0.022448,0.107116,-31.885,-9.345,-25.76,-0.3305567733450241,0.058746163963174045,-0.2240245506356861
1745337476.938748,0.815448,-0.0060999999999999995,0.075396,-27.405,-9.975000000000001,-11.865000000000002,-0.3305567733450241,0.058746163963174045,-0.2240245506356861
1745337477.0204787,1.0377319999999999,0.010248,0.135908,-14.700000000000001,-7.245000000000001,4.165,-0.3305567733450241,0.058746163963174045,-0.2240245506356861
1745337477.0989168,1.17974,0.028304,0.227896,3.5000000000000004,-8.225000000000001,12.110000000000001,-0.3305567733450241,0.058746163963174045,-0.2240245506356861
1745337477.1799588,1.339316,0.091012,0.3355,23.660000000000004,8.610000000000001,7.105,-0.3305567733450241,0.058746163963174045,-0.2240245506356861
1745337477.2590806,1.073844,0.15494,0.34038,33.46,17.64,4.305000000000001,-0.3305567733450241,0.058746163963174045,-0.2240245506356861
1745337477.3394237,0.934032,0.081252,0.288408,33.705000000000005,7.210000000000001,5.95,-0.3305567733450241,0.058746163963174045,-0.2240245506356861
1745337477.4192421,0.678076,0.026108,0.16104,30.625000000000004,-0.45500000000000007,10.815000000000001,-0.3305567733450241,0.058746163963174045,-0.2240245506356861
1745337477.4993098,0.723216,0.005612,0.06709999999999999,25.130000000000003,-18.41,15.505,-0.3305567733450241,0.058746163963174045,-0.2240245506356861
1745337477.5794022,0.892064,0.01464,0.092964,17.745,-7.385000000000001,12.600000000000001,-0.3305567733450241,0.058746163963174045,-0.2240245506356861
1745337477.6594667,1.131916,-0.021471999999999998,0.206668,4.970000000000001,0.10500000000000001,10.675,-0.3305567733450241,0.058746163963174045,-0.2240245506356861
1745337477.7395546,1.314184,-0.085644,0.28011199999999997,-7.420000000000001,-4.83,5.6000000000000005,-0.3305567733450241,0.058746163963174045,-0.2240245506356861
1745337477.8196545,1.222928,-0.144692,0.394548,-19.810000000000002,23.94,1.54,-0.3305567733450241,0.058746163963174045,-0.2240245506356861
1745337477.8997169,0.74542,-0.014884,0.177388,-24.675,-1.2950000000000002,-25.340000000000003,-0.3305567733450241,0.058746163963174045,-0.2240245506356861
1745337477.9798222,0.704916,0.014395999999999999,0.111996,-24.85,-9.485000000000001,-28.840000000000003,-0.3305567733450241,0.058746163963174045,-0.2240245506356861
1745337478.0613303,0.832284,-0.014152,0.095404,-23.8,-13.72,-19.46,-0.3305567733450241,0.058746163963174045,-0.2240245506356861
1745337478.1415465,1.014064,-0.005612,0.134688,-14.560000000000002,-5.355,-5.215000000000001,-0.3516001753616835,0.053485313459009205,-0.1955282770714599
1745337478.2200942,1.158756,0.056852,0.199348,3.0450000000000004,-6.720000000000001,6.930000000000001,-0.3516001753616835,0.053485313459009205,-0.1955282770714599
1745337478.3002002,1.365912,0.087352,0.277672,19.845000000000002,-4.165,11.620000000000001,-0.3516001753616835,0.053485313459009205,-0.1955282770714599
1745337478.3802636,1.112396,0.14127599999999998,0.35526399999999997,30.555000000000003,19.075000000000003,5.11,-0.3516001753616835,0.053485313459009205,-0.1955282770714599
1745337478.4603689,0.942816,0.083204,0.27327999999999997,30.800000000000004,6.825000000000001,5.075,-0.3516001753616835,0.053485313459009205,-0.1955282770714599
1745337478.5404336,0.676612,0.049044,0.169336,28.910000000000004,2.0650000000000004,6.195,-0.3516001753616835,0.053485313459009205,-0.1955282770714599
1745337478.620538,0.756644,0.034159999999999996,0.11468,21.105,-7.525,16.695,-0.3516001753616835,0.053485313459009205,-0.1955282770714599
1745337478.7006042,0.8769359999999999,0.024156,0.10467599999999999,12.915000000000001,-3.99,15.155000000000001,-0.3516001753616835,0.053485313459009205,-0.1955282770714599
1745337478.7807012,1.10288,0.021228,0.182024,4.9350000000000005,-8.89,6.930000000000001,-0.3516001753616835,0.053485313459009205,-0.1955282770714599
1745337478.860767,1.1843759999999999,-0.016104,0.229604,-4.655,-6.580000000000001,-1.0150000000000001,-0.3516001753616835,0.053485313459009205,-0.1955282770714599
1745337478.9408684,1.222928,-0.08588799999999999,0.350384,-13.23,18.340000000000003,-4.865,-0.3516001753616835,0.053485313459009205,-0.1955282770714599
1745337479.0209358,0.898164,-0.034159999999999996,0.234484,-17.325000000000003,2.555,-12.005,-0.3516001753616835,0.053485313459009205,-0.1955282770714599
1745337479.1010334,0.743712,0.0017079999999999999,0.152256,-18.025000000000002,2.8350000000000004,-17.115000000000002,-0.3516001753616835,0.053485313459009205,-0.1955282770714599
1745337479.1811035,0.826184,0.013908,0.113948,-16.135,-14.910000000000002,-11.865000000000002,-0.3516001753616835,0.053485313459009205,-0.1955282770714599
1745337479.261204,0.981368,0.0060999999999999995,0.125416,-15.260000000000002,-11.760000000000002,0.35000000000000003,-0.3516001753616835,0.053485313459009205,-0.1955282770714599
1745337479.3412724,1.058716,0.032208,0.183976,-6.090000000000001,-6.370000000000001,1.4700000000000002,-0.3516001753616835,0.053485313459009205,-0.1955282770714599
1745337479.4213717,1.3644479999999999,0.092232,0.301828,6.86,-12.600000000000001,-2.0650000000000004,-0.3516001753616835,0.053485313459009205,-0.1955282770714599
1745337479.5014396,0.990152,0.125904,0.305244,13.650000000000002,22.925,-3.1850000000000005,-0.3516001753616835,0.053485313459009205,-0.1955282770714599
1745337479.5815387,1.026996,0.070516,0.274744,16.555000000000003,0.42000000000000004,3.8850000000000002,-0.3516001753616835,0.053485313459009205,-0.1955282770714599
1745337479.661618,0.7795799999999999,0.055388,0.20618,17.185000000000002,14.14,4.585000000000001,-0.3516001753616835,0.053485313459009205,-0.1955282770714599
1745337479.741702,0.766648,0.061244,0.151768,14.105000000000002,4.83,10.815000000000001,-0.3375712406839106,0.040333187198597104,-0.23279263480929416
1745337479.8217716,0.878888,0.071736,0.119804,9.24,-7.210000000000001,10.955000000000002,-0.3375712406839106,0.040333187198597104,-0.23279263480929416
1745337479.901867,1.067256,0.065148,0.183244,2.0300000000000002,-6.8950000000000005,5.985,-0.3375712406839106,0.040333187198597104,-0.23279263480929416
1745337479.9819336,1.149728,0.029523999999999998,0.21862399999999999,-3.99,-4.165,-0.24500000000000002,-0.3375712406839106,0.040333187198597104,-0.23279263480929416
1745337480.06203,1.2829519999999999,-0.014152,0.302072,-7.420000000000001,-8.89,-3.8150000000000004,-0.3375712406839106,0.040333187198597104,-0.23279263480929416
1745337480.142095,0.930372,-0.020984,0.221308,-7.315,-9.485000000000001,-3.7800000000000002,-0.3375712406839106,0.040333187198597104,-0.23279263480929416
1745337480.2221882,0.7610359999999999,0.01952,0.139324,-9.31,0.9100000000000001,-8.645000000000001,-0.3375712406839106,0.040333187198597104,-0.23279263480929416
1745337480.302254,0.779092,0.009028,0.10467599999999999,-9.485000000000001,-0.9800000000000001,-4.515000000000001,-0.3375712406839106,0.040333187198597104,-0.23279263480929416
1745337480.3823488,0.946232,-0.011712,0.113948,-6.510000000000001,-8.33,4.305000000000001,-0.3375712406839106,0.040333187198597104,-0.23279263480929416
1745337480.4624083,1.108004,-0.007076,0.134688,1.9250000000000003,-6.510000000000001,5.915000000000001,-0.3375712406839106,0.040333187198597104,-0.23279263480929416
1745337480.5425217,1.295396,0.017324,0.18470799999999998,11.725000000000001,-4.375,8.085,-0.3375712406839106,0.040333187198597104,-0.23279263480929416
1745337480.6225657,1.188524,0.084424,0.322324,20.37,23.660000000000004,5.670000000000001,-0.3375712406839106,0.040333187198597104,-0.23279263480929416
1745337480.702655,0.99552,0.10248,0.276452,20.37,13.125000000000002,7.7700000000000005,-0.3375712406839106,0.040333187198597104,-0.23279263480929416
1745337480.7827227,0.749812,0.072956,0.213256,12.985000000000001,11.55,2.8350000000000004,-0.3375712406839106,0.040333187198597104,-0.23279263480929416
1745337480.8628101,0.740296,0.035623999999999996,0.16836,5.355,2.5900000000000003,3.115,-0.3375712406839106,0.040333187198597104,-0.23279263480929416
1745337480.9428794,0.82106,0.012688,0.12395199999999999,2.6250000000000004,-2.1350000000000002,8.995000000000001,-0.3375712406839106,0.040333187198597104,-0.23279263480929416
1745337481.0229664,1.042124,0.027816,0.161772,2.1,-8.715000000000002,13.510000000000002,-0.3375712406839106,0.040333187198597104,-0.23279263480929416
1745337481.1030328,1.12606,-0.010492,0.204228,-5.390000000000001,-8.225000000000001,10.57,-0.3375712406839106,0.040333187198597104,-0.23279263480929416
1745337481.1831245,1.378112,-0.08052,0.360144,-12.46,-2.555,2.345,-0.3375712406839106,0.040333187198597104,-0.23279263480929416
1745337481.2631917,0.952576,-0.049044,0.258152,-17.5,7.280000000000001,-11.13,-0.32441911442349847,0.06049978079789566,-0.23103901797457255
1745337481.3432875,0.707356,0.003172,0.132492,-18.445,0.9800000000000001,-18.865000000000002,-0.32441911442349847,0.06049978079789566,-0.23103901797457255
1745337481.4233503,0.7917799999999999,-0.00244,0.0915,-18.445,-13.405000000000001,-18.69,-0.32441911442349847,0.06049978079789566,-0.23103901797457255
1745337481.5034375,0.94916,-0.013663999999999999,0.134932,-15.995000000000001,-7.595000000000001,-9.170000000000002,-0.32441911442349847,0.06049978079789566,-0.23103901797457255
1745337481.5835063,1.090924,0.013663999999999999,0.2196,-3.535,-6.8950000000000005,-0.21000000000000002,-0.32441911442349847,0.06049978079789566,-0.23103901797457255
1745337481.663596,1.224636,0.025376,0.254736,12.670000000000002,-20.055000000000003,5.075,-0.32441911442349847,0.06049978079789566,-0.23103901797457255
1745337481.7437086,1.229272,0.138592,0.40626,28.560000000000002,5.285,0.45500000000000007,-0.32441911442349847,0.06049978079789566,-0.23103901797457255
1745337481.823754,1.055788,0.122976,0.342576,25.830000000000002,10.675,-0.385,-0.32441911442349847,0.06049978079789566,-0.23103901797457255
1745337481.903815,0.7141879999999999,0.061244,0.20813199999999998,23.485000000000003,6.720000000000001,-1.2950000000000002,-0.32441911442349847,0.06049978079789566,-0.23103901797457255
1745337481.98391,0.716384,0.008052,0.111752,18.795,-8.47,11.795000000000002,-0.32441911442349847,0.06049978079789566,-0.23103901797457255
1745337482.0639753,0.795928,0.014884,0.067344,13.685,-5.460000000000001,17.605,-0.32441911442349847,0.06049978079789566,-0.23103901797457255
1745337482.144064,1.06262,0.024156,0.13176,4.62,-9.345,13.370000000000001,-0.32441911442349847,0.06049978079789566,-0.23103901797457255
1745337482.2241302,1.173152,-0.042456,0.20691199999999998,-7.280000000000001,-14.14,9.38,-0.32441911442349847,0.06049978079789566,-0.23103901797457255
1745337482.30422,1.342976,-0.111264,0.3477,-9.38,2.24,6.4750000000000005,-0.32441911442349847,0.06049978079789566,-0.23103901797457255
1745337482.3842876,0.972584,-0.093208,0.31232,-22.995,11.725000000000001,-12.985000000000001,-0.32441911442349847,0.06049978079789566,-0.23103901797457255
1745337482.4643788,0.726144,0.005856,0.148108,-26.110000000000003,1.2600000000000002,-25.69,-0.32441911442349847,0.06049978079789566,-0.23103901797457255
1745337482.544449,0.789828,-0.00122,0.122,-22.085,-6.16,-22.05,-0.32441911442349847,0.06049978079789566,-0.23103901797457255
1745337482.6245441,0.94916,-0.027572,0.162016,-15.680000000000001,-3.3600000000000003,-5.11,-0.32441911442349847,0.06049978079789566,-0.23103901797457255
1745337482.7070086,1.086044,-0.026595999999999998,0.21520799999999998,-1.8200000000000003,-8.785,8.96,-0.32441911442349847,0.06049978079789566,-0.23103901797457255
1745337482.7846963,1.26148,0.000976,0.247172,10.57,-10.64,16.275000000000002,-0.32441911442349847,0.06049978079789566,-0.23103901797457255
1745337482.8664489,1.1843759999999999,0.112972,0.38112799999999997,20.580000000000002,25.795,2.0300000000000002,-0.32091188075405525,0.056992547128452434,-0.23980710214818063
1745337482.9448516,1.053836,0.081008,0.371856,17.955000000000002,17.360000000000003,0.14,-0.32091188075405525,0.056992547128452434,-0.23980710214818063
1745337483.0259054,0.822524,0.03782,0.277916,17.92,9.205,-1.225,-0.32091188075405525,0.056992547128452434,-0.23980710214818063
1745337483.1050088,0.660264,-0.035623999999999996,0.13908,15.540000000000001,-5.845000000000001,17.01,-0.32091188075405525,0.056992547128452434,-0.23980710214818063
1745337483.1899893,0.7856799999999999,0.018056,0.10004,15.015,-19.355,16.765,-0.32091188075405525,0.056992547128452434,-0.23980710214818063
1745337483.2651913,0.99918,0.034648,0.148108,4.83,-17.57,3.08,-0.32091188075405525,0.056992547128452434,-0.23980710214818063
1745337483.348239,1.158512,-0.008052,0.230092,-7.315,-8.365,-7.945000000000001,-0.32091188075405525,0.056992547128452434,-0.23980710214818063
1745337483.425345,1.39934,-0.082472,0.38917999999999997,-16.625,0.665,-4.095000000000001,-0.32091188075405525,0.056992547128452434,-0.23980710214818063
1745337483.5084043,0.994544,-0.163724,0.390644,-28.595000000000002,25.795,-6.125000000000001,-0.32091188075405525,0.056992547128452434,-0.23980710214818063
1745337483.5855045,0.6932039999999999,0.006588,0.137128,-22.715000000000003,-5.95,-19.005000000000003,-0.32091188075405525,0.056992547128452434,-0.23980710214818063
1745337483.6656148,0.7259,0.044896,0.088084,-19.215000000000003,-10.395000000000001,-20.44,-0.32091188075405525,0.056992547128452434,-0.23980710214818063
1745337483.745661,0.9052399999999999,0.0053679999999999995,0.107848,-19.67,-6.405,-7.490000000000001,-0.32091188075405525,0.056992547128452434,-0.23980710214818063
1745337483.8257654,1.11264,0.011224,0.209596,-10.465000000000002,0.21000000000000002,-0.385,-0.32091188075405525,0.056992547128452434,-0.23980710214818063
1745337483.905827,1.274656,0.024644,0.29036,3.8500000000000005,-2.5200000000000005,2.555,-0.32091188075405525,0.056992547128452434,-0.23980710214818063
1745337483.9859302,1.209508,0.13176,0.403088,16.205000000000002,19.775000000000002,0.7350000000000001,-0.32091188075405525,0.056992547128452434,-0.23980710214818063
1745337484.0659952,1.0918999999999999,0.10126,0.340868,15.855000000000002,6.125000000000001,8.610000000000001,-0.32091188075405525,0.056992547128452434,-0.23980710214818063
1745337484.1460967,0.764208,0.070272,0.254736,20.195,2.345,6.300000000000001,-0.32091188075405525,0.056992547128452434,-0.23980710214818063
1745337484.226172,0.6636799999999999,0.063684,0.137372,20.335,-13.370000000000001,13.755,-0.32091188075405525,0.056992547128452434,-0.23980710214818063
1745337484.3062682,0.793976,0.058804,0.08052,18.900000000000002,-14.000000000000002,22.19,-0.32091188075405525,0.056992547128452434,-0.23980710214818063
1745337484.3863323,0.986248,0.03172,0.16591999999999998,15.295000000000002,-3.2900000000000005,18.165000000000003,-0.32091188075405525,0.056992547128452434,-0.23980710214818063
1745337484.4664323,1.147044,-0.061244,0.261324,4.235,-5.6000000000000005,7.245000000000001,-0.3252959228408593,0.07014467338886453,-0.22314774221832528
1745337484.546513,1.38226,-0.138592,0.376004,-4.7250000000000005,-1.435,-0.45500000000000007,-0.3252959228408593,0.07014467338886453,-0.22314774221832528
1745337484.6265879,1.004548,-0.147376,0.35526399999999997,-13.650000000000002,30.590000000000003,-2.5200000000000005,-0.3252959228408593,0.07014467338886453,-0.22314774221832528
1745337484.7066576,0.694668,0.0046359999999999995,0.158112,-14.910000000000002,8.925,-20.580000000000002,-0.3252959228408593,0.07014467338886453,-0.22314774221832528
1745337484.7867494,0.7610359999999999,-0.005612,0.11345999999999999,-13.510000000000002,-10.185,-20.895000000000003,-0.3252959228408593,0.07014467338886453,-0.22314774221832528
1745337484.8668144,0.88694,-0.016836,0.129808,-11.375000000000002,-12.670000000000002,-14.945000000000002,-0.3252959228408593,0.07014467338886453,-0.22314774221832528
1745337484.9469008,1.102148,0.01952,0.202764,-3.115,-11.865000000000002,-7.630000000000001,-0.3252959228408593,0.07014467338886453,-0.22314774221832528
1745337485.0269678,1.197064,0.019764,0.250344,7.805000000000001,-10.675,2.1700000000000004,-0.3252959228408593,0.07014467338886453,-0.22314774221832528
1745337485.10706,1.281,0.110044,0.40382,22.925,11.655000000000001,-0.45500000000000007,-0.3252959228408593,0.07014467338886453,-0.22314774221832528
1745337485.187126,1.10288,0.087352,0.37576,22.505000000000003,8.995000000000001,6.65,-0.3252959228408593,0.07014467338886453,-0.22314774221832528
1745337485.267221,0.839604,0.032695999999999996,0.254004,20.685000000000002,1.7850000000000001,9.625000000000002,-0.3252959228408593,0.07014467338886453,-0.22314774221832528
1745337485.347293,0.672464,-0.008052,0.124196,15.260000000000002,-11.025,15.785000000000002,-0.3252959228408593,0.07014467338886453,-0.22314774221832528
1745337485.4273815,0.75396,0.00244,0.070516,9.73,-13.895000000000001,17.815,-0.3252959228408593,0.07014467338886453,-0.22314774221832528
1745337485.5074499,0.9455,0.007076,0.111752,2.345,-4.2700000000000005,10.605,-0.3252959228408593,0.07014467338886453,-0.22314774221832528
1745337485.5875432,1.143872,-0.008052,0.218136,-7.490000000000001,-1.8900000000000001,2.66,-0.3252959228408593,0.07014467338886453,-0.22314774221832528
1745337485.6676054,1.337608,-0.039772,0.302804,-14.840000000000002,-0.35000000000000003,-3.7800000000000002,-0.3252959228408593,0.07014467338886453,-0.22314774221832528
1745337485.7476904,1.0291919999999999,-0.098576,0.334036,-25.025000000000002,30.17,-2.5900000000000003,-0.3252959228408593,0.07014467338886453,-0.22314774221832528
1745337485.8277793,0.7376119999999999,-0.020252,0.19983599999999999,-23.485000000000003,5.95,-17.430000000000003,-0.3252959228408593,0.07014467338886453,-0.22314774221832528
1745337485.9078753,0.71736,0.017324,0.116632,-19.810000000000002,-10.955000000000002,-19.39,-0.3252959228408593,0.07014467338886453,-0.22314774221832528
1745337485.987953,0.885232,0.01098,0.110044,-19.67,-9.38,-12.250000000000002,-0.3252959228408593,0.07014467338886453,-0.22314774221832528
1745337486.0680382,1.0413919999999999,0.001952,0.17885199999999998,-12.845,1.6800000000000002,-0.31500000000000006,-0.3007452871547567,0.11310828583954406,-0.1718544498027181
1745337486.148097,1.160464,0.029036,0.24790399999999999,4.48,-6.580000000000001,4.585000000000001,-0.3007452871547567,0.11310828583954406,-0.1718544498027181
1745337486.2281818,1.297104,0.134932,0.395524,17.990000000000002,9.205,2.87,-0.3007452871547567,0.11310828583954406,-0.1718544498027181
1745337486.308247,1.102392,0.125172,0.399916,17.115000000000002,16.94,2.5900000000000003,-0.3007452871547567,0.11310828583954406,-0.1718544498027181
1745337486.3883288,0.858148,0.077592,0.29402,23.94,8.435,3.43,-0.3007452871547567,0.11310828583954406,-0.1718544498027181
1745337486.4684045,0.676856,0.061244,0.157136,27.125000000000004,-6.265000000000001,17.080000000000002,-0.3007452871547567,0.11310828583954406,-0.1718544498027181
1745337486.5484855,0.742004,0.028304,0.105408,24.85,-10.99,27.755000000000003,-0.3007452871547567,0.11310828583954406,-0.1718544498027181
1745337486.6288252,0.92842,0.0183,0.135664,20.720000000000002,-2.9050000000000002,20.160000000000004,-0.3007452871547567,0.11310828583954406,-0.1718544498027181
1745337486.7086287,1.139236,-0.015372,0.240828,8.995000000000001,-3.5000000000000004,12.985000000000001,-0.3007452871547567,0.11310828583954406,-0.1718544498027181
1745337486.788694,1.2878319999999999,-0.083692,0.288896,-3.2900000000000005,-2.765,5.565,-0.3007452871547567,0.11310828583954406,-0.1718544498027181
1745337486.8687797,1.142896,-0.160796,0.38308,-17.115000000000002,28.245,1.155,-0.3007452871547567,0.11310828583954406,-0.1718544498027181
1745337486.9488416,0.753228,-0.000244,0.217404,-11.340000000000002,-5.425000000000001,-20.195,-0.3007452871547567,0.11310828583954406,-0.1718544498027181
1745337487.028924,0.688568,0.022203999999999998,0.122732,-8.540000000000001,-21.28,-18.935000000000002,-0.3007452871547567,0.11310828583954406,-0.1718544498027181
1745337487.1089873,0.837164,-0.061488,0.09759999999999999,-12.110000000000001,-22.89,-11.9,-0.3007452871547567,0.11310828583954406,-0.1718544498027181
1745337487.1890712,1.018456,-0.038308,0.158112,-11.270000000000001,-5.6000000000000005,-6.335000000000001,-0.3007452871547567,0.11310828583954406,-0.1718544498027181
1745337487.269134,1.147776,0.004392,0.20252,-0.42000000000000004,-4.0600000000000005,1.8200000000000003,-0.3007452871547567,0.11310828583954406,-0.1718544498027181
1745337487.3492253,1.35542,0.10052799999999999,0.357216,14.000000000000002,0.49000000000000005,6.545000000000001,-0.3007452871547567,0.11310828583954406,-0.1718544498027181
1745337487.4292853,1.041148,0.122732,0.38064,17.535,21.630000000000003,5.005000000000001,-0.3007452871547567,0.11310828583954406,-0.1718544498027181
1745337487.5093699,0.928908,0.09467199999999999,0.306464,21.665000000000003,8.785,-0.07,-0.3007452871547567,0.11310828583954406,-0.1718544498027181
1745337487.5922256,0.675636,0.0017079999999999999,0.1525,18.515,5.040000000000001,6.44,-0.3007452871547567,0.11310828583954406,-0.1718544498027181
1745337487.6695342,0.76128,0.034404,0.098088,17.465000000000003,-8.575000000000001,15.890000000000002,-0.317404647084612,0.04734765453748356,-0.22840859272249014
1745337487.7516785,0.908168,0.025131999999999998,0.120292,11.13,-7.105,14.980000000000002,-0.317404647084612,0.04734765453748356,-0.22840859272249014
1745337487.8296924,1.146068,-0.000244,0.207156,1.33,-12.39,6.4750000000000005,-0.317404647084612,0.04734765453748356,-0.22840859272249014
1745337487.911114,1.332728,-0.053436,0.258884,-9.8,-12.355,1.8200000000000003,-0.317404647084612,0.04734765453748356,-0.22840859272249014
1745337487.989849,1.152656,-0.170068,0.379664,-18.935000000000002,22.785000000000004,3.6400000000000006,-0.317404647084612,0.04734765453748356,-0.22840859272249014
1745337488.0705373,0.7564,-0.050263999999999996,0.162992,-18.725,1.155,-18.62,-0.317404647084612,0.04734765453748356,-0.22840859272249014
1745337488.1500132,0.707112,-0.008052,0.111996,-22.680000000000003,-1.4700000000000002,-24.78,-0.317404647084612,0.04734765453748356,-0.22840859272249014
1745337488.2300887,0.863516,-0.024399999999999998,0.10614,-21.175,-12.215000000000002,-19.740000000000002,-0.317404647084612,0.04734765453748356,-0.22840859272249014
1745337488.311981,1.0377319999999999,-0.018788,0.15128,-14.175,-10.395000000000001,-7.700000000000001,-0.317404647084612,0.04734765453748356,-0.22840859272249014
1745337488.3932714,1.12972,-0.00366,0.197396,1.5750000000000002,-13.370000000000001,-0.35000000000000003,-0.317404647084612,0.04734765453748356,-0.22840859272249014
1745337488.4703712,1.338096,0.08588799999999999,0.316224,17.360000000000003,-4.41,0.14,-0.317404647084612,0.04734765453748356,-0.22840859272249014
1745337488.5563667,1.0870199999999999,0.136884,0.349164,17.85,22.435000000000002,3.8850000000000002,-0.317404647084612,0.04734765453748356,-0.22840859272249014
1745337488.6305332,0.881084,0.060511999999999996,0.24570799999999998,14.945000000000002,10.885000000000002,8.190000000000001,-0.317404647084612,0.04734765453748356,-0.22840859272249014
1745337488.7106302,0.694912,0.027327999999999998,0.140788,12.355,-0.42000000000000004,6.8950000000000005,-0.317404647084612,0.04734765453748356,-0.22840859272249014
1745337488.790699,0.75762,0.003172,0.088084,2.555,-5.005000000000001,16.345000000000002,-0.317404647084612,0.04734765453748356,-0.22840859272249014
1745337488.8707974,0.972096,0.0068319999999999995,0.110776,0.6300000000000001,-9.8,15.260000000000002,-0.317404647084612,0.04734765453748356,-0.22840859272249014
1745337488.950859,1.1904759999999999,0.02562,0.19641999999999998,-1.6800000000000002,-8.96,13.685,-0.317404647084612,0.04734765453748356,-0.22840859272249014
1745337489.030954,1.16022,-0.049532,0.180316,-10.57,3.3950000000000005,5.355,-0.317404647084612,0.04734765453748356,-0.22840859272249014
1745337489.111019,1.186084,-0.102724,0.305488,-15.610000000000001,15.645000000000001,5.250000000000001,-0.317404647084612,0.04734765453748356,-0.22840859272249014
1745337489.1911218,0.857904,-0.019032,0.193004,-19.635,1.7850000000000001,-14.910000000000002,-0.317404647084612,0.04734765453748356,-0.22840859272249014
1745337489.2711797,0.733464,-0.036112,0.12102399999999999,-18.76,-1.7500000000000002,-27.615000000000002,-0.3314335817623849,0.06137658921525647,-0.210872424375274
1745337489.3512793,0.8313079999999999,-0.07076,0.106872,-10.255,-18.55,-13.335,-0.3314335817623849,0.06137658921525647,-0.210872424375274
1745337489.4313338,1.039928,-0.032208,0.17324,0.07,-13.195000000000002,4.130000000000001,-0.3314335817623849,0.06137658921525647,-0.210872424375274
1745337489.5114233,1.1411879999999999,-0.004148,0.24522,7.700000000000001,-2.1700000000000004,7.3500000000000005,-0.3314335817623849,0.06137658921525647,-0.210872424375274
1745337489.591479,1.339804,0.047335999999999996,0.301584,18.900000000000002,1.8550000000000002,0.8400000000000001,-0.3314335817623849,0.06137658921525647,-0.210872424375274
1745337489.6715605,1.052372,0.098332,0.302316,22.610000000000003,23.065,1.0150000000000001,-0.3314335817623849,0.06137658921525647,-0.210872424375274
1745337489.751626,0.937692,0.059047999999999996,0.27327999999999997,23.905,12.075000000000001,1.6800000000000002,-0.3314335817623849,0.06137658921525647,-0.210872424375274
1745337489.8317099,0.705892,0.044407999999999996,0.164456,25.585,0.7350000000000001,6.790000000000001,-0.3314335817623849,0.06137658921525647,-0.210872424375274
1745337489.9117727,0.751032,0.019032,0.103944,21.245,-7.245000000000001,18.55,-0.3314335817623849,0.06137658921525647,-0.210872424375274
1745337489.9918559,0.8732759999999999,0.01342,0.109556,14.560000000000002,1.8550000000000002,12.81,-0.3314335817623849,0.06137658921525647,-0.210872424375274
1745337490.0719209,1.13582,-0.024888,0.20374,2.66,-2.6250000000000004,8.260000000000002,-0.3314335817623849,0.06137658921525647,-0.210872424375274
1745337490.1520073,1.231956,-0.06709999999999999,0.275964,-8.33,-0.8400000000000001,2.975,-0.3314335817623849,0.06137658921525647,-0.210872424375274
1745337490.2320669,1.196088,-0.10345599999999999,0.41846,-21.525000000000002,14.175,3.8150000000000004,-0.3314335817623849,0.06137658921525647,-0.210872424375274
1745337490.3121583,1.002596,-0.087108,0.351116,-21.035000000000004,-1.54,-14.175,-0.3314335817623849,0.06137658921525647,-0.210872424375274
1745337490.3922327,0.73444,-0.022935999999999998,0.124928,-17.955000000000002,-7.105,-15.715000000000002,-0.3314335817623849,0.06137658921525647,-0.210872424375274
1745337490.472328,0.832284,-0.042212,0.11053199999999999,-15.120000000000001,-15.155000000000001,-12.670000000000002,-0.3314335817623849,0.06137658921525647,-0.210872424375274
1745337490.552384,1.0426119999999999,-0.061,0.162504,-7.700000000000001,-11.445,1.0850000000000002,-0.3314335817623849,0.06137658921525647,-0.210872424375274
1745337490.632465,1.161928,0.017811999999999998,0.233264,6.23,-3.1850000000000005,5.985,-0.3314335817623849,0.06137658921525647,-0.210872424375274
1745337490.7125282,1.284416,0.12078,0.302804,17.465000000000003,3.535,-2.9050000000000002,-0.3314335817623849,0.06137658921525647,-0.210872424375274
1745337490.7926118,1.010892,0.10126,0.340624,20.055000000000003,17.815,-6.16,-0.33494081543182813,0.04208680403331872,-0.23103901797457255
1745337490.8726742,0.91744,0.055632,0.309148,20.545,9.345,-0.21000000000000002,-0.33494081543182813,0.04208680403331872,-0.23103901797457255
1745337490.9527583,0.70882,-0.032695999999999996,0.21228,18.025000000000002,11.445,10.675,-0.33494081543182813,0.04208680403331872,-0.23103901797457255
1745337491.0328188,0.756644,-0.03172,0.13078399999999998,16.8,-5.985,15.365000000000002,-0.33494081543182813,0.04208680403331872,-0.23103901797457255
1745337491.1129014,0.922076,-0.007076,0.142008,13.125000000000002,-8.435,13.860000000000001,-0.33494081543182813,0.04208680403331872,-0.23103901797457255
1745337491.1929624,1.136796,-0.026595999999999998,0.205936,4.585000000000001,-10.360000000000001,12.145000000000001,-0.33494081543182813,0.04208680403331872,-0.23103901797457255
1745337491.273049,1.188768,-0.068808,0.195932,-4.970000000000001,-10.500000000000002,4.550000000000001,-0.33494081543182813,0.04208680403331872,-0.23103901797457255
1745337491.3531218,1.254648,-0.134932,0.33061999999999997,-17.255000000000003,10.71,5.985,-0.33494081543182813,0.04208680403331872,-0.23103901797457255
1745337491.4332078,1.016748,-0.150304,0.33989199999999997,-15.925,17.045,-2.87,-0.33494081543182813,0.04208680403331872,-0.23103901797457255
1745337491.5132694,0.713456,0.005856,0.13078399999999998,-15.750000000000002,-13.755,-20.580000000000002,-0.33494081543182813,0.04208680403331872,-0.23103901797457255
1745337491.593353,0.850096,-0.018056,0.088084,-18.48,-17.78,-16.66,-0.33494081543182813,0.04208680403331872,-0.23103901797457255
1745337491.6734543,1.022116,-0.046848,0.135664,-17.535,-3.9200000000000004,-4.9350000000000005,-0.33494081543182813,0.04208680403331872,-0.23103901797457255
1745337491.7534988,1.11752,-0.004148,0.197396,-4.515000000000001,-4.025,-2.66,-0.33494081543182813,0.04208680403331872,-0.23103901797457255
1745337491.833562,1.315892,0.051727999999999996,0.271084,6.65,-12.005,-3.6400000000000006,-0.33494081543182813,0.04208680403331872,-0.23103901797457255
1745337491.913645,1.03944,0.10736,0.28426,10.010000000000002,9.8,-1.155,-0.33494081543182813,0.04208680403331872,-0.23103901797457255
1745337491.993718,0.985516,0.057583999999999996,0.259372,10.885000000000002,5.845000000000001,7.280000000000001,-0.33494081543182813,0.04208680403331872,-0.23103901797457255
1745337492.0738056,0.72834,0.023667999999999998,0.181048,14.350000000000001,14.245000000000001,10.500000000000002,-0.33494081543182813,0.04208680403331872,-0.23103901797457255
1745337492.1538749,0.7302919999999999,0.024644,0.11102,15.015,-4.340000000000001,14.175,-0.33494081543182813,0.04208680403331872,-0.23103901797457255
1745337492.2339659,0.871812,0.02684,0.074664,8.995000000000001,-12.250000000000002,11.200000000000001,-0.33494081543182813,0.04208680403331872,-0.23103901797457255
1745337492.3140335,1.120204,-0.006588,0.176656,-1.995,-2.8000000000000003,3.325,-0.33494081543182813,0.04208680403331872,-0.23103901797457255
1745337492.3941252,1.158756,-0.069296,0.205448,-10.430000000000001,-0.28,-3.2900000000000005,-0.3252959228408593,0.07277509864094696,-0.2222709338009645
1745337492.4741986,1.285148,-0.06417199999999999,0.331352,-13.440000000000001,12.32,-6.265000000000001,-0.3252959228408593,0.07277509864094696,-0.2222709338009645
1745337492.5542874,1.01626,-0.075396,0.312076,-12.600000000000001,18.515,-11.165000000000001,-0.3252959228408593,0.07277509864094696,-0.2222709338009645
1745337492.6370344,0.7315119999999999,-0.02318,0.141764,-15.610000000000001,-0.7000000000000001,-16.695,-0.3252959228408593,0.07277509864094696,-0.2222709338009645
1745337492.7144437,0.832284,-0.022935999999999998,0.114924,-13.370000000000001,-14.700000000000001,-12.145000000000001,-0.3252959228408593,0.07277509864094696,-0.2222709338009645
1745337492.7964866,0.9742919999999999,-0.040015999999999996,0.12932,-10.22,-17.395000000000003,-0.31500000000000006,-0.3252959228408593,0.07277509864094696,-0.2222709338009645
1745337492.8746126,1.103856,0.008296,0.15884399999999999,2.1700000000000004,-18.725,0.28,-0.3252959228408593,0.07277509864094696,-0.2222709338009645
1745337492.9559736,1.291736,0.078812,0.21716,13.895000000000001,-12.355,-4.48,-0.3252959228408593,0.07277509864094696,-0.2222709338009645
1745337493.0347707,1.113128,0.158112,0.378932,17.395000000000003,27.895000000000003,-2.6250000000000004,-0.3252959228408593,0.07277509864094696,-0.2222709338009645
1745337493.115391,1.0267519999999999,0.061488,0.338428,11.305000000000001,21.315,12.600000000000001,-0.3252959228408593,0.07277509864094696,-0.2222709338009645
1745337493.1949313,0.72712,0.014884,0.205448,10.430000000000001,12.215000000000002,12.040000000000001,-0.3252959228408593,0.07277509864094696,-0.2222709338009645
1745337493.274996,0.734684,0.012688,0.11345999999999999,6.790000000000001,-5.845000000000001,22.225,-0.3252959228408593,0.07277509864094696,-0.2222709338009645
1745337493.3554337,0.831064,-0.008539999999999999,0.088572,2.1,-6.510000000000001,19.775000000000002,-0.3252959228408593,0.07277509864094696,-0.2222709338009645
1745337493.4380922,1.037,-0.009271999999999999,0.144204,-2.205,-7.875000000000001,5.565,-0.3252959228408593,0.07277509864094696,-0.2222709338009645
1745337493.515296,1.160464,-0.033428,0.19397999999999999,-9.450000000000001,-6.405,-4.235,-0.3252959228408593,0.07277509864094696,-0.2222709338009645
1745337493.5953977,1.401048,-0.076128,0.342576,-14.315000000000001,2.1700000000000004,-0.8750000000000001,-0.3252959228408593,0.07277509864094696,-0.2222709338009645
1745337493.6754637,1.001132,-0.142252,0.349164,-17.360000000000003,20.545,6.580000000000001,-0.3252959228408593,0.07277509864094696,-0.2222709338009645
1745337493.7555556,0.6673399999999999,-0.0068319999999999995,0.151524,-9.24,0.385,-19.425,-0.3252959228408593,0.07277509864094696,-0.2222709338009645
