Timestamp,Accel X,Accel Y,Accel Z,Gyro X,Gyro Y,Gyro Z,Magneto X,Magneto Y,Magneto Z
1745337709.1246595,0.934276,0.015127999999999999,0.052216,-7.630000000000001,17.64,11.795000000000002,-0.3428320911880754,0.0648838228846997,-0.1718544498027181
1745337709.1303165,0.947452,0.028791999999999998,0.044896,-7.945000000000001,18.305000000000003,10.395000000000001,-0.3428320911880754,0.0648838228846997,-0.1718544498027181
1745337709.1344287,0.9557479999999999,0.026595999999999998,0.049044,-8.225000000000001,19.53,9.345,-0.3428320911880754,0.0648838228846997,-0.1718544498027181
1745337709.1393926,0.951112,0.023667999999999998,0.052216,-8.190000000000001,20.790000000000003,8.085,-0.3428320911880754,0.0648838228846997,-0.1718544498027181
1745337709.1443088,0.947452,0.021471999999999998,0.055632,-8.085,21.945000000000004,6.790000000000001,-0.3428320911880754,0.0648838228846997,-0.1718544498027181
1745337709.1491237,0.949892,0.017568,0.03538,-7.910000000000001,22.645000000000003,5.1450000000000005,-0.3428320911880754,0.0648838228846997,-0.1718544498027181
1745337709.153985,0.933056,0.017568,0.024888,-7.805000000000001,24.080000000000002,3.535,-0.3428320911880754,0.0648838228846997,-0.1718544498027181
1745337709.158912,0.898164,0.012444,0.011712,-7.630000000000001,25.55,2.1350000000000002,-0.3428320911880754,0.0648838228846997,-0.1718544498027181
1745337709.165284,0.868152,0.0183,0.000732,-7.455000000000001,27.020000000000003,0.9450000000000001,-0.3428320911880754,0.0648838228846997,-0.1718544498027181
1745337709.1698048,0.857416,0.026595999999999998,-0.00244,-7.630000000000001,29.19,-0.07,-0.3428320911880754,0.0648838228846997,-0.1718544498027181
1745337709.1744964,0.84546,0.029036,-0.010492,-7.700000000000001,30.310000000000002,-0.07,-0.3428320911880754,0.0648838228846997,-0.1718544498027181
1745337709.179431,0.813252,0.017568,-0.0183,-7.630000000000001,30.835000000000004,0.0,-0.3428320911880754,0.0648838228846997,-0.1718544498027181
1745337709.184339,0.7905599999999999,-0.0060999999999999995,-0.017079999999999998,-7.490000000000001,31.045,0.17500000000000002,-0.3428320911880754,0.0648838228846997,-0.1718544498027181
1745337709.1891937,0.7905599999999999,-0.019032,-0.016836,-7.280000000000001,30.975,0.525,-0.3428320911880754,0.0648838228846997,-0.1718544498027181
1745337709.1940267,0.779092,-0.025376,-0.005612,-6.825000000000001,30.800000000000004,0.9100000000000001,-0.3428320911880754,0.0648838228846997,-0.1718544498027181
1745337709.1988974,0.764208,-0.017079999999999998,-0.003172,-6.265000000000001,30.065,1.155,-0.3428320911880754,0.0648838228846997,-0.1718544498027181
1745337709.203971,0.747616,-0.020496,-0.008296,-5.705000000000001,29.19,1.4000000000000001,-0.3428320911880754,0.0648838228846997,-0.1718544498027181
1745337709.2093165,0.731268,-0.017811999999999998,-0.01586,-5.1450000000000005,28.385,1.4000000000000001,-0.3428320911880754,0.0648838228846997,-0.1718544498027181
1745337709.2137928,0.7198,-0.018788,-0.022935999999999998,-4.655,27.860000000000003,1.435,-0.3428320911880754,0.0648838228846997,-0.1718544498027181
1745337709.2189648,0.71248,-0.029523999999999998,-0.031964,-4.025,27.090000000000003,1.5050000000000001,-0.3428320911880754,0.0648838228846997,-0.1718544498027181
1745337709.2235856,0.725168,-0.038308,-0.039528,-3.4650000000000003,26.320000000000004,1.61,-0.3428320911880754,0.0648838228846997,-0.1718544498027181
1745337709.228488,0.731756,-0.040015999999999996,-0.042456,-2.9050000000000002,25.69,1.435,-0.34721613327487943,0.08329679964927664,-0.20473476545374836
1745337709.2332747,0.7327319999999999,-0.038551999999999996,-0.039284,-2.45,24.85,1.3650000000000002,-0.34721613327487943,0.08329679964927664,-0.20473476545374836
1745337709.2381637,0.736148,-0.033184,-0.039284,-2.1,24.360000000000003,1.9600000000000002,-0.34721613327487943,0.08329679964927664,-0.20473476545374836
1745337709.2430456,0.746884,-0.027572,-0.046604,-1.8900000000000001,23.520000000000003,1.8200000000000003,-0.34721613327487943,0.08329679964927664,-0.20473476545374836
1745337709.2494352,0.77226,-0.019275999999999998,-0.047335999999999996,-2.205,22.855,2.1,-0.34721613327487943,0.08329679964927664,-0.20473476545374836
1745337709.2537105,0.793244,-0.023424,-0.05002,-2.45,22.995,2.45,-0.34721613327487943,0.08329679964927664,-0.20473476545374836
1745337709.2585351,0.795196,-0.093208,-0.067832,-2.3800000000000003,24.570000000000004,3.115,-0.34721613327487943,0.08329679964927664,-0.20473476545374836
1745337709.2634616,0.914024,-0.164212,0.057583999999999996,-2.3800000000000003,26.215000000000003,1.7500000000000002,-0.34721613327487943,0.08329679964927664,-0.20473476545374836
1745337709.2683818,1.014796,-0.065148,-0.043676,-2.87,25.375000000000004,0.805,-0.34721613327487943,0.08329679964927664,-0.20473476545374836
1745337709.2731714,0.766892,-0.076128,0.000244,-3.9200000000000004,25.655,-1.995,-0.34721613327487943,0.08329679964927664,-0.20473476545374836
1745337709.2780507,0.84424,0.045871999999999996,-0.079544,-5.74,22.785000000000004,-3.43,-0.34721613327487943,0.08329679964927664,-0.20473476545374836
1745337709.2829075,0.713456,0.030987999999999998,0.044407999999999996,-7.910000000000001,24.395000000000003,-0.9100000000000001,-0.34721613327487943,0.08329679964927664,-0.20473476545374836
1745337709.289487,0.677832,-0.001464,0.03294,-8.82,17.990000000000002,2.1350000000000002,-0.34721613327487943,0.08329679964927664,-0.20473476545374836
1745337709.293075,0.8264279999999999,-0.056119999999999996,-0.10614,-9.485000000000001,13.125000000000002,2.3800000000000003,-0.34721613327487943,0.08329679964927664,-0.20473476545374836
1745337709.2978122,0.910852,0.033672,-0.12102399999999999,-10.780000000000001,14.035000000000002,-1.435,-0.34721613327487943,0.08329679964927664,-0.20473476545374836
1745337709.3026564,0.7015,0.053924,-0.170312,-12.670000000000002,15.05,-2.0300000000000002,-0.34721613327487943,0.08329679964927664,-0.20473476545374836
1745337709.3075461,0.523868,-0.006588,0.01952,-14.105000000000002,12.565000000000001,0.6300000000000001,-0.34721613327487943,0.08329679964927664,-0.20473476545374836
1745337709.3124094,0.669536,-0.060024,-0.138348,-14.175,-0.9800000000000001,2.975,-0.34721613327487943,0.08329679964927664,-0.20473476545374836
1745337709.318337,0.877668,-0.03538,-0.189832,-15.505,-3.7450000000000006,2.6950000000000003,-0.34721613327487943,0.08329679964927664,-0.20473476545374836
1745337709.3317997,0.82716,-0.023424,-0.111996,-19.32,-7.140000000000001,2.6250000000000004,-0.34721613327487943,0.08329679964927664,-0.20473476545374836
1745337709.335213,0.960384,0.023424,-0.153476,-19.985000000000003,-8.085,2.8000000000000003,-0.34721613327487943,0.08329679964927664,-0.20473476545374836
1745337709.3401418,0.978196,0.030255999999999998,-0.092964,-20.930000000000003,-7.525,3.8850000000000002,-0.34721613327487943,0.08329679964927664,-0.20473476545374836
1745337709.3449244,0.992104,0.073444,-0.098088,-21.875000000000004,-8.995000000000001,5.180000000000001,-0.34721613327487943,0.08329679964927664,-0.20473476545374836
1745337709.349809,0.963068,0.064416,-0.060511999999999996,-23.485000000000003,-9.31,5.880000000000001,-0.34721613327487943,0.08329679964927664,-0.20473476545374836
1745337709.3546717,1.016016,-0.0053679999999999995,-0.026108,-24.745,-10.64,5.215000000000001,-0.34721613327487943,0.08329679964927664,-0.20473476545374836
1745337709.3604305,1.089948,-0.011712,-0.066612,-25.340000000000003,-11.06,4.375,-0.34721613327487943,0.08329679964927664,-0.20473476545374836
1745337709.364755,1.070916,-0.065148,-0.053191999999999996,-25.900000000000002,-8.575000000000001,4.7250000000000005,-0.34721613327487943,0.08329679964927664,-0.20473476545374836
1745337709.3694797,1.04798,-0.141032,-0.050996,-25.935000000000002,-7.525,4.865,-0.34721613327487943,0.08329679964927664,-0.20473476545374836
1745337709.3743377,1.043588,-0.146644,-0.051727999999999996,-25.69,-6.090000000000001,3.22,-0.34721613327487943,0.08329679964927664,-0.20473476545374836
1745337709.3792284,1.003572,-0.10248,-0.057583999999999996,-25.970000000000002,-5.32,1.7500000000000002,-0.34721613327487943,0.08329679964927664,-0.20473476545374836
1745337709.3871047,0.886208,-0.05368,-0.06539199999999999,-28.28,-4.9350000000000005,2.6950000000000003,-0.34721613327487943,0.08329679964927664,-0.20473476545374836
1745337709.391801,0.904264,-0.046604,-0.062708,-29.925000000000004,-4.760000000000001,3.5000000000000004,-0.34721613327487943,0.08329679964927664,-0.20473476545374836
1745337709.3964906,0.988932,-0.033428,-0.076128,-31.675000000000004,-5.355,3.3600000000000003,-0.34721613327487943,0.08329679964927664,-0.20473476545374836
1745337709.4012725,1.0492,-0.069296,-0.081496,-33.705000000000005,-4.235,2.6250000000000004,-0.34721613327487943,0.08329679964927664,-0.20473476545374836
1745337709.406158,1.04554,-0.109068,-0.068808,-35.42,-2.415,0.56,-0.34721613327487943,0.08329679964927664,-0.20473476545374836
1745337709.4110274,1.0309,-0.137128,-0.071736,-36.715,-2.31,-1.0150000000000001,-0.34721613327487943,0.08329679964927664,-0.20473476545374836
1745337709.4163392,1.03212,-0.150304,-0.065636,-37.730000000000004,-3.0450000000000004,-1.715,-0.34721613327487943,0.08329679964927664,-0.20473476545374836
1745337709.4211826,1.0413919999999999,-0.15128,-0.061975999999999996,-38.36000000000001,-4.550000000000001,-2.1350000000000002,-0.34721613327487943,0.08329679964927664,-0.20473476545374836
1745337709.4258666,1.101172,-0.135908,-0.08418,-38.85,-6.300000000000001,-2.87,-0.3577378342832091,0.09732573432704954,-0.208680403331872
1745337709.43068,1.152656,-0.116144,-0.09272,-39.37500000000001,-6.510000000000001,-3.8500000000000005,-0.3577378342832091,0.09732573432704954,-0.208680403331872
1745337709.4385285,1.152412,-0.10467599999999999,-0.09028,-40.040000000000006,-5.705000000000001,-3.1850000000000005,-0.3577378342832091,0.09732573432704954,-0.208680403331872
1745337709.4418187,1.14192,-0.136884,-0.09394,-40.98500000000001,-4.83,-2.4850000000000003,-0.3577378342832091,0.09732573432704954,-0.208680403331872
1745337709.4475348,1.168028,-0.14005599999999999,-0.08906,-41.230000000000004,-4.305000000000001,-2.415,-0.3577378342832091,0.09732573432704954,-0.208680403331872
1745337709.4518664,1.1773,-0.160796,-0.062708,-41.475,-3.7100000000000004,-1.7850000000000001,-0.3577378342832091,0.09732573432704954,-0.208680403331872
1745337709.456629,1.187548,-0.17202,-0.045871999999999996,-41.720000000000006,-3.7100000000000004,-1.8550000000000002,-0.3577378342832091,0.09732573432704954,-0.208680403331872
1745337709.4616017,1.193404,-0.173728,-0.028791999999999998,-42.00000000000001,-3.8500000000000005,-2.345,-0.3577378342832091,0.09732573432704954,-0.208680403331872
1745337709.4665036,1.209996,-0.16836,-0.006344,-42.42,-4.48,-2.8350000000000004,-0.3577378342832091,0.09732573432704954,-0.208680403331872
1745337709.4713094,1.215852,-0.165188,0.001952,-43.190000000000005,-4.83,-3.1850000000000005,-0.3577378342832091,0.09732573432704954,-0.208680403331872
1745337709.4761736,1.198284,-0.17446,0.00732,-43.75000000000001,-5.1450000000000005,-3.3950000000000005,-0.3577378342832091,0.09732573432704954,-0.208680403331872
1745337709.4810374,1.18096,-0.191052,0.0034159999999999998,-44.275000000000006,-5.285,-3.8150000000000004,-0.3577378342832091,0.09732573432704954,-0.208680403331872
1745337709.4863458,1.2165839999999999,-0.1769,0.012688,-44.59,-4.83,-4.83,-0.3577378342832091,0.09732573432704954,-0.208680403331872
1745337709.4937205,1.1314279999999999,-0.203984,0.040992,-45.57000000000001,-2.1,-5.250000000000001,-0.3577378342832091,0.09732573432704954,-0.208680403331872
1745337709.4971714,1.1314279999999999,-0.203984,-0.021471999999999998,-45.64000000000001,-4.62,-6.65,-0.3577378342832091,0.09732573432704954,-0.208680403331872
1745337709.502133,1.1733959999999999,-0.181292,-0.006344,-46.2,-2.2750000000000004,-7.105,-0.3577378342832091,0.09732573432704954,-0.208680403331872
1745337709.5070295,1.180228,-0.210328,0.026352,-46.2,-2.0650000000000004,-6.055000000000001,-0.3577378342832091,0.09732573432704954,-0.208680403331872
1745337709.5118911,1.27978,-0.205448,0.018543999999999998,-45.78,-1.0850000000000002,-6.720000000000001,-0.3577378342832091,0.09732573432704954,-0.208680403331872
1745337709.5167427,1.40056,-0.192028,0.037576,-45.36000000000001,2.205,-7.525,-0.3577378342832091,0.09732573432704954,-0.208680403331872
1745337709.5215838,1.4849839999999999,-0.199104,0.050752,-44.940000000000005,6.6850000000000005,-8.190000000000001,-0.3577378342832091,0.09732573432704954,-0.208680403331872
1745337709.526753,1.525976,-0.19056399999999998,0.0915,-44.45,11.445,-8.995000000000001,-0.3577378342832091,0.09732573432704954,-0.208680403331872
1745337709.5318758,1.518168,-0.193492,0.089548,-43.89000000000001,14.000000000000002,-9.345,-0.3577378342832091,0.09732573432704954,-0.208680403331872
1745337709.536411,1.505724,-0.17934,0.12322,-43.400000000000006,16.135,-10.010000000000002,-0.3577378342832091,0.09732573432704954,-0.208680403331872
1745337709.5412476,1.505236,-0.157136,0.105652,-42.87500000000001,16.205000000000002,-10.325000000000001,-0.3577378342832091,0.09732573432704954,-0.208680403331872
1745337709.546967,1.473272,-0.139324,0.101504,-42.35,16.380000000000003,-9.940000000000001,-0.3577378342832091,0.09732573432704954,-0.208680403331872
1745337709.551078,1.422032,-0.128588,0.10492,-41.755,16.205000000000002,-9.100000000000001,-0.3577378342832091,0.09732573432704954,-0.208680403331872
1745337709.5558693,1.3864079999999999,-0.121756,0.092232,-41.05500000000001,14.910000000000002,-8.855,-0.3577378342832091,0.09732573432704954,-0.208680403331872
1745337709.5607712,1.324432,-0.109556,0.066124,-40.495000000000005,14.350000000000001,-8.260000000000002,-0.3577378342832091,0.09732573432704954,-0.208680403331872
1745337709.5656297,1.219268,-0.105896,0.061488,-39.830000000000005,13.965000000000002,-7.665000000000001,-0.3577378342832091,0.09732573432704954,-0.208680403331872
1745337709.5712724,1.106784,-0.103944,0.07076,-39.480000000000004,12.040000000000001,-6.4750000000000005,-0.3577378342832091,0.09732573432704954,-0.208680403331872
1745337709.5756354,1.04798,-0.112728,0.06709999999999999,-38.85,8.645000000000001,-4.445,-0.3577378342832091,0.09732573432704954,-0.208680403331872
1745337709.5804071,1.010892,-0.123464,0.053924,-38.220000000000006,5.285,-2.4850000000000003,-0.3577378342832091,0.09732573432704954,-0.208680403331872
1745337709.5852692,0.990152,-0.134688,0.080276,-37.59,-6.0200000000000005,0.21000000000000002,-0.3577378342832091,0.09732573432704954,-0.208680403331872
1745337709.5901628,1.01138,-0.138104,0.084912,-36.855000000000004,-2.975,0.6300000000000001,-0.3577378342832091,0.09732573432704954,-0.208680403331872
1745337709.595053,1.029924,-0.14713199999999999,0.09174399999999999,-35.80500000000001,-5.390000000000001,0.805,-0.3577378342832091,0.09732573432704954,-0.208680403331872
1745337709.6056976,1.053104,-0.145668,0.10345599999999999,-34.965,-7.595000000000001,0.24500000000000002,-0.3577378342832091,0.09732573432704954,-0.208680403331872
1745337709.6113803,1.159976,-0.159088,0.079056,-34.440000000000005,-7.455000000000001,0.35000000000000003,-0.3577378342832091,0.09732573432704954,-0.208680403331872
1745337709.6147296,1.172664,-0.156648,0.09516,-33.88,-5.565,0.21000000000000002,-0.3577378342832091,0.09732573432704954,-0.208680403331872
1745337709.6196384,1.1758359999999999,-0.166896,0.103944,-33.32,-4.41,0.6300000000000001,-0.3577378342832091,0.09732573432704954,-0.208680403331872
1745337709.6244574,1.199992,-0.167628,0.090524,-32.725,-2.3800000000000003,0.385,-0.3822884699693117,0.12801402893467778,-0.17667689609820253
1745337709.6293254,1.219756,-0.161772,0.092476,-32.620000000000005,1.155,0.42000000000000004,-0.3822884699693117,0.12801402893467778,-0.17667689609820253
1745337709.6341922,1.206336,-0.161772,0.095648,-32.655,4.585000000000001,0.49000000000000005,-0.3822884699693117,0.12801402893467778,-0.17667689609820253
1745337709.6394951,1.208776,-0.155916,0.101504,-32.27,7.595000000000001,0.525,-0.3822884699693117,0.12801402893467778,-0.17667689609820253
1745337709.644336,1.2226839999999999,-0.159332,0.095404,-31.885,10.675,0.42000000000000004,-0.3822884699693117,0.12801402893467778,-0.17667689609820253
1745337709.649054,1.22488,-0.14518,0.08881599999999999,-31.535000000000004,14.350000000000001,0.0,-0.3822884699693117,0.12801402893467778,-0.17667689609820253
1745337709.6539109,1.199504,-0.130296,0.105408,-31.360000000000003,18.62,-0.35000000000000003,-0.3822884699693117,0.12801402893467778,-0.17667689609820253
1745337709.6588423,1.180228,-0.144204,0.112484,-31.150000000000002,21.98,-0.525,-0.3822884699693117,0.12801402893467778,-0.17667689609820253
1745337709.6645713,1.159244,-0.12224399999999999,0.11345999999999999,-30.905000000000005,24.815,-1.2950000000000002,-0.3822884699693117,0.12801402893467778,-0.17667689609820253
1745337709.668521,1.1436279999999999,-0.115412,0.108824,-30.835000000000004,27.300000000000004,-1.5750000000000002,-0.3822884699693117,0.12801402893467778,-0.17667689609820253
1745337709.673415,1.107516,-0.110776,0.107848,-30.800000000000004,29.575000000000003,-2.6250000000000004,-0.3822884699693117,0.12801402893467778,-0.17667689609820253
1745337709.678286,1.069208,-0.10614,0.121268,-30.765000000000004,31.255000000000003,-3.22,-0.3822884699693117,0.12801402893467778,-0.17667689609820253
1745337709.6838868,1.047248,-0.09028,0.126392,-30.765000000000004,31.535000000000004,-4.655,-0.3822884699693117,0.12801402893467778,-0.17667689609820253
1745337709.688298,1.03334,-0.07710399999999999,0.122732,-30.800000000000004,31.675000000000004,-5.635000000000001,-0.3822884699693117,0.12801402893467778,-0.17667689609820253
1745337709.6930869,1.005768,-0.071004,0.118828,-31.185000000000002,31.570000000000004,-6.6850000000000005,-0.3822884699693117,0.12801402893467778,-0.17667689609820253
1745337709.6980526,0.971364,-0.05856,0.12395199999999999,-31.395000000000003,30.695000000000004,-7.630000000000001,-0.3822884699693117,0.12801402893467778,-0.17667689609820253
1745337709.7029374,0.944524,-0.038551999999999996,0.11468,-31.710000000000004,29.575000000000003,-8.365,-0.3822884699693117,0.12801402893467778,-0.17667689609820253
1745337709.7077608,0.931592,-0.040748,0.10467599999999999,-31.780000000000005,28.525000000000002,-9.030000000000001,-0.3822884699693117,0.12801402893467778,-0.17667689609820253
1745337709.7126338,0.9125599999999999,-0.039772,0.0793,-31.780000000000005,26.67,-9.940000000000001,-0.3822884699693117,0.12801402893467778,-0.17667689609820253
1745337709.7182288,0.880108,-0.032208,0.096136,-31.570000000000004,25.060000000000002,-10.500000000000002,-0.3822884699693117,0.12801402893467778,-0.17667689609820253
1745337709.7228348,0.848876,-0.028791999999999998,0.08881599999999999,-31.290000000000003,22.19,-10.850000000000001,-0.3822884699693117,0.12801402893467778,-0.17667689609820253
1745337709.7276733,0.823256,-0.029523999999999998,0.09028,-30.660000000000004,18.900000000000002,-11.410000000000002,-0.3822884699693117,0.12801402893467778,-0.17667689609820253
1745337709.7323341,0.794464,-0.024644,0.082716,-29.960000000000004,15.190000000000001,-11.9,-0.3822884699693117,0.12801402893467778,-0.17667689609820253
1745337709.7371628,0.779824,-0.017568,0.07808,-29.19,11.235000000000001,-12.670000000000002,-0.3822884699693117,0.12801402893467778,-0.17667689609820253
1745337709.7420468,0.763232,-0.010248,0.066368,-28.42,7.280000000000001,-13.685,-0.3822884699693117,0.12801402893467778,-0.17667689609820253
1745337709.746919,0.737124,0.0053679999999999995,0.066368,-27.685000000000002,3.6400000000000006,-14.735000000000001,-0.3822884699693117,0.12801402893467778,-0.17667689609820253
1745337709.7524214,0.71858,0.012688,0.055144,-27.195000000000004,-0.35000000000000003,-15.47,-0.3822884699693117,0.12801402893467778,-0.17667689609820253
1745337709.7570817,0.705892,0.018056,0.048068,-26.845000000000002,-4.2,-16.065,-0.3822884699693117,0.12801402893467778,-0.17667689609820253
1745337709.7618215,0.69906,0.013908,0.0427,-26.6,-7.910000000000001,-16.66,-0.3822884699693117,0.12801402893467778,-0.17667689609820253
1745337709.769717,0.70882,0.011467999999999999,0.027572,-26.355000000000004,-11.270000000000001,-16.94,-0.3822884699693117,0.12801402893467778,-0.17667689609820253
1745337709.773033,0.718824,0.014884,0.023667999999999998,-26.215000000000003,-15.680000000000001,-16.975,-0.3822884699693117,0.12801402893467778,-0.17667689609820253
1745337709.777833,0.718092,0.022935999999999998,0.015127999999999999,-25.935000000000002,-18.025000000000002,-17.115000000000002,-0.3822884699693117,0.12801402893467778,-0.17667689609820253
1745337709.782698,0.743956,0.026108,0.008539999999999999,-25.725,-19.53,-16.695,-0.3822884699693117,0.12801402893467778,-0.17667689609820253
1745337709.7875633,0.7598159999999999,0.030987999999999998,0.008052,-25.480000000000004,-20.720000000000002,-16.310000000000002,-0.3822884699693117,0.12801402893467778,-0.17667689609820253
1745337709.7928224,0.766892,0.030987999999999998,0.00366,-25.200000000000003,-21.595000000000002,-15.820000000000002,-0.3822884699693117,0.12801402893467778,-0.17667689609820253
1745337709.797897,0.769088,0.029036,0.000976,-25.095000000000002,-22.155,-15.260000000000002,-0.3822884699693117,0.12801402893467778,-0.17667689609820253
1745337709.802642,0.7783599999999999,0.024156,-0.002196,-24.885,-22.575000000000003,-14.840000000000002,-0.3822884699693117,0.12801402893467778,-0.17667689609820253
1745337709.8075202,0.7991,0.02684,-0.008539999999999999,-24.71,-22.435000000000002,-14.350000000000001,-0.3822884699693117,0.12801402893467778,-0.17667689609820253
1745337709.8124306,0.80886,0.029768,-0.014884,-24.500000000000004,-21.98,-13.930000000000001,-0.3822884699693117,0.12801402893467778,-0.17667689609820253
1745337709.8173406,0.812032,0.026352,-0.019275999999999998,-24.255000000000003,-21.07,-13.370000000000001,-0.3822884699693117,0.12801402893467778,-0.17667689609820253
1745337709.8246322,0.813008,0.021471999999999998,-0.030987999999999998,-23.905,-18.55,-12.005,-0.38842612889083733,0.12538360368259535,-0.14949583516001755
1745337709.827874,0.814472,0.01952,-0.030987999999999998,-23.905,-18.55,-12.005,-0.38842612889083733,0.12538360368259535,-0.14949583516001755
1745337709.8328722,0.808372,0.019764,-0.036112,-23.87,-17.290000000000003,-11.515,-0.38842612889083733,0.12538360368259535,-0.14949583516001755
1745337709.8381927,0.799588,0.01464,-0.040992,-23.275000000000002,-14.840000000000002,-10.115,-0.38842612889083733,0.12538360368259535,-0.14949583516001755
1745337709.8427093,0.7991,0.011467999999999999,-0.04636,-22.96,-13.72,-9.450000000000001,-0.38842612889083733,0.12538360368259535,-0.14949583516001755
1745337709.8475158,0.795928,0.010248,-0.049288,-22.575000000000003,-12.530000000000001,-8.715000000000002,-0.38842612889083733,0.12538360368259535,-0.14949583516001755
1745337709.8524969,0.7905599999999999,0.0053679999999999995,-0.053924,-22.155,-11.375000000000002,-7.98,-0.38842612889083733,0.12538360368259535,-0.14949583516001755
1745337709.8573878,0.790316,0.000244,-0.050996,-21.735000000000003,-10.535,-7.420000000000001,-0.38842612889083733,0.12538360368259535,-0.14949583516001755
1745337709.8621962,0.81862,-0.00244,-0.050508,-21.21,-9.695,-7.000000000000001,-0.38842612889083733,0.12538360368259535,-0.14949583516001755
1745337709.8670638,0.820328,-0.00488,-0.048312,-20.615000000000002,-8.855,-6.6850000000000005,-0.38842612889083733,0.12538360368259535,-0.14949583516001755
1745337709.8719413,0.8127639999999999,-0.0060999999999999995,-0.047092,-19.915000000000003,-8.260000000000002,-6.545000000000001,-0.38842612889083733,0.12538360368259535,-0.14949583516001755
1745337709.8785841,0.808616,-0.010735999999999999,-0.052704,-19.145000000000003,-8.05,-6.370000000000001,-0.38842612889083733,0.12538360368259535,-0.14949583516001755
1745337709.8822215,0.8152039999999999,-0.012199999999999999,-0.057096,-18.305000000000003,-8.015,-6.090000000000001,-0.38842612889083733,0.12538360368259535,-0.14949583516001755
1745337709.8869784,0.8239879999999999,-0.01586,-0.063196,-17.395000000000003,-8.155000000000001,-6.265000000000001,-0.38842612889083733,0.12538360368259535,-0.14949583516001755
1745337709.8918176,0.8264279999999999,-0.017079999999999998,-0.063196,-16.485000000000003,-7.840000000000001,-5.880000000000001,-0.38842612889083733,0.12538360368259535,-0.14949583516001755
1745337709.896743,0.820816,-0.014152,-0.066368,-15.575000000000001,-7.5600000000000005,-5.74,-0.38842612889083733,0.12538360368259535,-0.14949583516001755
1745337709.901584,0.8227679999999999,-0.013908,-0.069052,-14.665000000000001,-7.210000000000001,-5.495,-0.38842612889083733,0.12538360368259535,-0.14949583516001755
1745337709.9073079,0.83326,-0.015616,-0.074664,-13.755,-6.755000000000001,-5.1450000000000005,-0.38842612889083733,0.12538360368259535,-0.14949583516001755
1745337709.9116526,0.838384,-0.018056,-0.06344,-12.845,-6.195,-4.7250000000000005,-0.38842612889083733,0.12538360368259535,-0.14949583516001755
1745337709.9164176,0.844728,-0.017324,-0.063928,-11.865000000000002,-6.16,-4.41,-0.38842612889083733,0.12538360368259535,-0.14949583516001755
1745337709.9214108,0.8632719999999999,-0.019275999999999998,-0.056119999999999996,-11.025,-6.055000000000001,-4.0600000000000005,-0.38842612889083733,0.12538360368259535,-0.14949583516001755
1745337709.9263082,0.8830359999999999,-0.022935999999999998,-0.052948,-10.185,-6.265000000000001,-3.7800000000000002,-0.38842612889083733,0.12538360368259535,-0.14949583516001755
1745337709.931941,0.900116,-0.027572,-0.034648,-7.875000000000001,-7.3500000000000005,-3.6050000000000004,-0.38842612889083733,0.12538360368259535,-0.14949583516001755
1745337709.9359665,0.926468,-0.022448,-0.034648,-7.875000000000001,-7.700000000000001,-3.8850000000000002,-0.38842612889083733,0.12538360368259535,-0.14949583516001755
1745337709.9408493,0.951356,-0.01952,-0.025376,-5.390000000000001,-8.505,-4.235,-0.38842612889083733,0.12538360368259535,-0.14949583516001755
1745337709.9460347,0.9569679999999999,-0.017811999999999998,-0.023424,-4.025,-9.135000000000002,-4.48,-0.38842612889083733,0.12538360368259535,-0.14949583516001755
1745337709.9511158,0.964288,-0.017324,-0.01586,-2.6250000000000004,-10.500000000000002,-4.69,-0.38842612889083733,0.12538360368259535,-0.14949583516001755
1745337709.9558039,0.987956,-0.0068319999999999995,-0.023424,-1.435,-11.515,-5.075,-0.38842612889083733,0.12538360368259535,-0.14949583516001755
1745337709.9606798,0.976244,-0.006588,-0.026108,-0.28,-12.46,-5.32,-0.38842612889083733,0.12538360368259535,-0.14949583516001755
1745337709.9656267,0.9742919999999999,-0.0017079999999999999,-0.026595999999999998,0.805,-13.825000000000001,-5.565,-0.38842612889083733,0.12538360368259535,-0.14949583516001755
1745337709.970504,0.986736,0.010003999999999999,-0.02928,1.7850000000000001,-15.085,-5.74,-0.38842612889083733,0.12538360368259535,-0.14949583516001755
1745337709.975297,1.002108,0.0183,-0.026108,2.5900000000000003,-16.1,-5.74,-0.38842612889083733,0.12538360368259535,-0.14949583516001755
1745337709.9801817,1.017724,0.022203999999999998,-0.020007999999999998,3.2550000000000003,-16.87,-5.53,-0.38842612889083733,0.12538360368259535,-0.14949583516001755
1745337709.985804,1.035536,0.023667999999999998,-0.013663999999999999,3.8500000000000005,-17.71,-5.355,-0.38842612889083733,0.12538360368259535,-0.14949583516001755
1745337709.9914157,1.053836,0.02684,-0.011467999999999999,4.445,-18.41,-5.075,-0.38842612889083733,0.12538360368259535,-0.14949583516001755
1745337709.995169,1.07116,0.020984,-0.010003999999999999,5.1450000000000005,-19.39,-5.005000000000001,-0.38842612889083733,0.12538360368259535,-0.14949583516001755
1745337709.99995,1.087264,0.019275999999999998,0.000488,5.845000000000001,-20.020000000000003,-4.585000000000001,-0.38842612889083733,0.12538360368259535,-0.14949583516001755
1745337710.0049224,1.109468,0.00732,-0.008296,6.545000000000001,-20.720000000000002,-4.095000000000001,-0.38842612889083733,0.12538360368259535,-0.14949583516001755
1745337710.009815,1.136064,0.004392,0.009271999999999999,7.3500000000000005,-20.895000000000003,-3.7450000000000006,-0.38842612889083733,0.12538360368259535,-0.14949583516001755
1745337710.01462,1.16022,0.0,-0.004148,8.085,-21.245,-3.3600000000000003,-0.38842612889083733,0.12538360368259535,-0.14949583516001755
1745337710.0194955,1.1770559999999999,0.0017079999999999999,0.00366,8.89,-20.580000000000002,-3.2550000000000003,-0.3971942130644454,0.12626041209995617,-0.11486190267426567
1745337710.0243623,1.181204,-0.008052,0.005124,9.625000000000002,-19.985000000000003,-3.08,-0.3971942130644454,0.12626041209995617,-0.11486190267426567
1745337710.0296047,1.18462,-0.008539999999999999,0.00976,10.325000000000001,-19.145000000000003,-3.7100000000000004,-0.3971942130644454,0.12626041209995617,-0.11486190267426567
1745337710.037451,1.196576,-0.012444,0.013908,11.760000000000002,-17.5,-4.445,-0.3971942130644454,0.12626041209995617,-0.11486190267426567
1745337710.0408661,1.227808,-0.014395999999999999,0.02928,12.81,-16.450000000000003,-5.250000000000001,-0.3971942130644454,0.12626041209995617,-0.11486190267426567
1745337710.045803,1.2322,-0.01464,0.045384,13.930000000000001,-15.120000000000001,-6.720000000000001,-0.3971942130644454,0.12626041209995617,-0.11486190267426567
1745337710.050709,1.24196,-0.011712,0.0427,15.085,-14.035000000000002,-7.98,-0.3971942130644454,0.12626041209995617,-0.11486190267426567
1745337710.0555363,1.253672,-0.004148,0.05124,16.415000000000003,-12.355,-9.030000000000001,-0.3971942130644454,0.12626041209995617,-0.11486190267426567
1745337710.0603893,1.2646519999999999,-0.011956,0.042943999999999996,17.57,-10.675,-9.835,-0.3971942130644454,0.12626041209995617,-0.11486190267426567
1745337710.0652623,1.281488,-0.016592,0.050508,18.830000000000002,-8.33,-10.605,-0.3971942130644454,0.12626041209995617,-0.11486190267426567
1745337710.070383,1.301984,-0.023667999999999998,0.042212,20.195,-5.635000000000001,-11.410000000000002,-0.3971942130644454,0.12626041209995617,-0.11486190267426567
1745337710.0755148,1.342488,-0.022692,0.047824,21.630000000000003,-2.0650000000000004,-11.97,-0.3971942130644454,0.12626041209995617,-0.11486190267426567
1745337710.0801215,1.382016,-0.02684,0.041236,23.03,2.3800000000000003,-12.215000000000002,-0.3971942130644454,0.12626041209995617,-0.11486190267426567
1745337710.0849354,1.424228,-0.025863999999999998,0.059047999999999996,24.500000000000004,7.700000000000001,-12.425,-0.3971942130644454,0.12626041209995617,-0.11486190267426567
1745337710.0926282,1.5189,-0.013908,0.066124,26.565,19.915000000000003,-12.635000000000002,-0.3971942130644454,0.12626041209995617,-0.11486190267426567
1745337710.096032,1.509628,-0.0017079999999999999,0.072224,27.545,26.565,-12.740000000000002,-0.3971942130644454,0.12626041209995617,-0.11486190267426567
1745337710.100859,1.4752239999999999,0.01342,0.092232,28.000000000000004,31.535000000000004,-12.81,-0.3971942130644454,0.12626041209995617,-0.11486190267426567
1745337710.1057382,1.42984,0.01952,0.091012,28.490000000000002,35.42,-11.865000000000002,-0.3971942130644454,0.12626041209995617,-0.11486190267426567
1745337710.1106133,1.372256,0.039284,0.11102,28.665000000000003,38.50000000000001,-10.815000000000001,-0.3971942130644454,0.12626041209995617,-0.11486190267426567
1745337710.1162527,1.334436,0.049288,0.110776,28.910000000000004,39.550000000000004,-9.205,-0.3971942130644454,0.12626041209995617,-0.11486190267426567
1745337710.1206415,1.307352,0.047824,0.11931599999999999,29.085000000000004,40.145,-7.5600000000000005,-0.3971942130644454,0.12626041209995617,-0.11486190267426567
1745337710.1254687,1.27978,0.053191999999999996,0.12322,29.365000000000002,39.830000000000005,-6.265000000000001,-0.3971942130644454,0.12626041209995617,-0.11486190267426567
1745337710.130432,1.247816,0.060268,0.126148,29.750000000000004,38.955000000000005,-4.795000000000001,-0.3971942130644454,0.12626041209995617,-0.11486190267426567
1745337710.135337,1.204384,0.068076,0.133224,29.995000000000005,37.870000000000005,-3.6400000000000006,-0.3971942130644454,0.12626041209995617,-0.11486190267426567
1745337710.1401365,1.172664,0.076372,0.14762,30.380000000000003,36.085,-2.4850000000000003,-0.3971942130644454,0.12626041209995617,-0.11486190267426567
1745337710.1457555,1.15534,0.07808,0.149572,30.625000000000004,33.81,-1.4000000000000001,-0.3971942130644454,0.12626041209995617,-0.11486190267426567
1745337710.1498845,1.150948,0.084912,0.15372,30.94,31.885,-0.385,-0.3971942130644454,0.12626041209995617,-0.11486190267426567
1745337710.1554048,1.149484,0.078568,0.14762,31.325000000000003,29.785000000000004,0.31500000000000006,-0.3971942130644454,0.12626041209995617,-0.11486190267426567
1745337710.1600971,1.13582,0.087352,0.153232,31.395000000000003,28.560000000000002,0.9800000000000001,-0.3971942130644454,0.12626041209995617,-0.11486190267426567
1745337710.1647706,1.1326479999999999,0.088328,0.153476,31.605000000000004,27.195000000000004,1.4700000000000002,-0.3971942130644454,0.12626041209995617,-0.11486190267426567
1745337710.16965,1.14314,0.08588799999999999,0.148596,31.990000000000002,26.180000000000003,1.8900000000000001,-0.3971942130644454,0.12626041209995617,-0.11486190267426567
1745337710.174556,1.1468,0.087108,0.14713199999999999,32.585,26.250000000000004,1.8900000000000001,-0.3971942130644454,0.12626041209995617,-0.11486190267426567
1745337710.1794174,1.147532,0.083448,0.149328,32.795,26.705000000000002,1.6800000000000002,-0.3971942130644454,0.12626041209995617,-0.11486190267426567
1745337710.1852217,1.145824,0.081984,0.150548,33.145,27.125000000000004,1.435,-0.3971942130644454,0.12626041209995617,-0.11486190267426567
1745337710.189603,1.12972,0.083448,0.149328,33.46,27.650000000000002,1.33,-0.3971942130644454,0.12626041209995617,-0.11486190267426567
1745337710.197353,1.110444,0.081008,0.14713199999999999,33.635000000000005,28.105000000000004,1.12,-0.3971942130644454,0.12626041209995617,-0.11486190267426567
1745337710.20095,1.095804,0.081008,0.139324,33.81,28.315,1.0850000000000002,-0.3971942130644454,0.12626041209995617,-0.11486190267426567
1745337710.20582,1.079456,0.08295999999999999,0.132492,34.125,28.560000000000002,0.7350000000000001,-0.3971942130644454,0.12626041209995617,-0.11486190267426567
1745337710.210612,1.065548,0.079788,0.135664,34.02,28.315,0.385,-0.3971942130644454,0.12626041209995617,-0.11486190267426567
1745337710.2155054,1.062864,0.067832,0.138348,33.95,27.965000000000003,0.24500000000000002,-0.37439719421306444,0.10258658483121438,-0.158702323542306
1745337710.2203746,1.05652,0.059292,0.137128,34.055,27.51,-0.14,-0.37439719421306444,0.10258658483121438,-0.158702323542306
1745337710.2261379,1.02846,0.052704,0.138104,34.125,27.755000000000003,0.21000000000000002,-0.37439719421306444,0.10258658483121438,-0.158702323542306
1745337710.2304096,1.001132,0.048312,0.137128,34.475,27.44,0.5950000000000001,-0.37439719421306444,0.10258658483121438,-0.158702323542306
1745337710.235143,0.980636,0.048799999999999996,0.137128,34.650000000000006,25.830000000000002,1.2950000000000002,-0.37439719421306444,0.10258658483121438,-0.158702323542306
1745337710.2401152,0.972096,0.042456,0.137128,35.14,24.990000000000002,1.9250000000000003,-0.37439719421306444,0.10258658483121438,-0.158702323542306
1745337710.2450342,0.962824,0.0366,0.132004,35.42,24.325000000000003,2.4850000000000003,-0.37439719421306444,0.10258658483121438,-0.158702323542306
1745337710.2522924,0.9211,0.032695999999999996,0.12102399999999999,35.665000000000006,23.660000000000004,3.1500000000000004,-0.37439719421306444,0.10258658483121438,-0.158702323542306
1745337710.255869,0.893528,0.026595999999999998,0.117364,35.980000000000004,23.1,4.095000000000001,-0.37439719421306444,0.10258658483121438,-0.158702323542306
1745337710.2607453,0.874008,0.027327999999999998,0.117852,36.190000000000005,21.840000000000003,4.48,-0.37439719421306444,0.10258658483121438,-0.158702323542306
1745337710.2660763,0.863516,0.022448,0.1098,36.085,20.930000000000003,5.8100000000000005,-0.37439719421306444,0.10258658483121438,-0.158702323542306
1745337710.2714825,0.851804,0.01586,0.103212,36.050000000000004,20.160000000000004,6.755000000000001,-0.37439719421306444,0.10258658483121438,-0.158702323542306
1745337710.2761562,0.838384,0.013908,0.105164,35.980000000000004,19.53,7.595000000000001,-0.37439719421306444,0.10258658483121438,-0.158702323542306
1745337710.2810864,0.830576,0.0068319999999999995,0.099308,35.875,18.585,8.47,-0.37439719421306444,0.10258658483121438,-0.158702323542306
1745337710.286003,0.825696,0.006588,0.097356,35.665000000000006,17.92,9.415000000000001,-0.37439719421306444,0.10258658483121438,-0.158702323542306
1745337710.2908726,0.813496,0.004392,0.098088,35.385000000000005,17.255000000000003,10.395000000000001,-0.37439719421306444,0.10258658483121438,-0.158702323542306
1745337710.2956724,0.796904,-0.001464,0.09881999999999999,35.07,16.450000000000003,11.270000000000001,-0.37439719421306444,0.10258658483121438,-0.158702323542306
1745337710.3005574,0.785192,-0.006344,0.093696,34.650000000000006,14.63,12.705000000000002,-0.37439719421306444,0.10258658483121438,-0.158702323542306
1745337710.3063204,0.776652,-0.010492,0.077592,34.195,13.790000000000001,13.405000000000001,-0.37439719421306444,0.10258658483121438,-0.158702323542306
1745337710.3123558,0.751032,-0.013663999999999999,0.07710399999999999,34.02,13.125000000000002,13.930000000000001,-0.37439719421306444,0.10258658483121438,-0.158702323542306
1745337710.3170142,0.735416,-0.014884,0.06709999999999999,33.775000000000006,12.110000000000001,14.385000000000002,-0.37439719421306444,0.10258658483121438,-0.158702323542306
1745337710.3218992,0.721996,-0.016104,0.06588,33.495000000000005,11.305000000000001,14.980000000000002,-0.37439719421306444,0.10258658483121438,-0.158702323542306
1745337710.3268366,0.7141879999999999,-0.020007999999999998,0.060024,33.39,10.430000000000001,15.505,-0.37439719421306444,0.10258658483121438,-0.158702323542306
1745337710.3317273,0.713456,-0.023667999999999998,0.059292,33.285000000000004,9.520000000000001,15.96,-0.37439719421306444,0.10258658483121438,-0.158702323542306
1745337710.3365023,0.71004,-0.026352,0.05978,33.145,8.505,16.415000000000003,-0.37439719421306444,0.10258658483121438,-0.158702323542306
1745337710.3413923,0.7068679999999999,-0.02684,0.061,32.970000000000006,7.5600000000000005,16.695,-0.37439719421306444,0.10258658483121438,-0.158702323542306
1745337710.3462863,0.707844,-0.030255999999999998,0.060268,32.690000000000005,6.265000000000001,17.045,-0.37439719421306444,0.10258658483121438,-0.158702323542306
1745337710.3519206,0.7093079999999999,-0.027327999999999998,0.059047999999999996,32.445,4.760000000000001,17.395000000000003,-0.37439719421306444,0.10258658483121438,-0.158702323542306
1745337710.3592403,0.7076,-0.030744,0.057583999999999996,31.92,1.54,18.270000000000003,-0.37439719421306444,0.10258658483121438,-0.158702323542306
1745337710.3629675,0.711504,-0.028548,0.050263999999999996,31.710000000000004,0.0,18.935000000000002,-0.37439719421306444,0.10258658483121438,-0.158702323542306
1745337710.3679416,0.71126,-0.026352,0.048799999999999996,31.360000000000003,-1.7500000000000002,18.935000000000002,-0.37439719421306444,0.10258658483121438,-0.158702323542306
1745337710.3728328,0.710284,-0.022692,0.04392,30.905000000000005,-3.115,19.46,-0.37439719421306444,0.10258658483121438,-0.158702323542306
1745337710.3776228,0.707356,-0.020496,0.040015999999999996,30.660000000000004,-4.655,19.845000000000002,-0.37439719421306444,0.10258658483121438,-0.158702323542306
1745337710.3825426,0.709796,-0.017811999999999998,0.034159999999999996,30.345000000000002,-6.055000000000001,20.090000000000003,-0.37439719421306444,0.10258658483121438,-0.158702323542306
1745337710.3873618,0.7137,-0.012444,0.023667999999999998,29.890000000000004,-7.3500000000000005,20.335,-0.37439719421306444,0.10258658483121438,-0.158702323542306
1745337710.3930924,0.715164,-0.00732,0.020252,29.400000000000002,-8.47,20.44,-0.37439719421306444,0.10258658483121438,-0.158702323542306
1745337710.3973808,0.7198,-0.002928,0.012688,28.805000000000003,-9.590000000000002,20.44,-0.37439719421306444,0.10258658483121438,-0.158702323542306
1745337710.4021535,0.731268,0.0034159999999999998,0.00732,28.175000000000004,-10.605,20.335,-0.37439719421306444,0.10258658483121438,-0.158702323542306
1745337710.4076009,0.743468,0.013176,0.000244,27.405,-11.48,20.195,-0.37439719421306444,0.10258658483121438,-0.158702323542306
1745337710.413701,0.7549359999999999,0.020496,-0.008052,25.55,-12.670000000000002,19.67,-0.34984655852696184,0.08855765015344147,-0.1854449802718106
1745337710.417332,0.766892,0.026595999999999998,-0.008052,25.55,-12.670000000000002,19.635,-0.34984655852696184,0.08855765015344147,-0.1854449802718106
1745337710.422169,0.783728,0.033184,-0.01098,24.570000000000004,-13.090000000000002,19.110000000000003,-0.34984655852696184,0.08855765015344147,-0.1854449802718106
1745337710.4270444,0.809348,0.041968,-0.010248,22.12,-12.950000000000001,18.76,-0.34984655852696184,0.08855765015344147,-0.1854449802718106
1745337710.432128,0.824232,0.044164,-0.012199999999999999,20.755000000000003,-12.775,18.305000000000003,-0.34984655852696184,0.08855765015344147,-0.1854449802718106
1745337710.4381845,0.841312,0.04636,-0.019764,19.46,-12.740000000000002,17.92,-0.34984655852696184,0.08855765015344147,-0.1854449802718106
1745337710.4428406,0.852536,0.044164,-0.01952,18.200000000000003,-12.530000000000001,17.535,-0.34984655852696184,0.08855765015344147,-0.1854449802718106
1745337710.4477334,0.86376,0.040504,-0.023667999999999998,17.01,-12.425,17.045,-0.34984655852696184,0.08855765015344147,-0.1854449802718106
1745337710.4526653,0.87718,0.028791999999999998,-0.02684,15.925,-12.110000000000001,16.520000000000003,-0.34984655852696184,0.08855765015344147,-0.1854449802718106
1745337710.457561,0.893528,0.026595999999999998,-0.034404,14.875000000000002,-11.515,15.925,-0.34984655852696184,0.08855765015344147,-0.1854449802718106
1745337710.4653387,0.8954799999999999,0.004148,-0.04392,13.72,-10.815000000000001,15.575000000000001,-0.34984655852696184,0.08855765015344147,-0.1854449802718106
1745337710.4688835,0.904508,-0.036356,-0.060024,12.915000000000001,-9.170000000000002,15.015,-0.34984655852696184,0.08855765015344147,-0.1854449802718106
1745337710.4739819,0.9272,-0.015127999999999999,-0.061732,11.9,-8.260000000000002,14.770000000000001,-0.34984655852696184,0.08855765015344147,-0.1854449802718106
1745337710.480635,0.941352,-0.037576,-0.060511999999999996,11.165000000000001,-6.930000000000001,14.735000000000001,-0.34984655852696184,0.08855765015344147,-0.1854449802718106
1745337710.4852543,0.9496479999999999,-0.046116,-0.06709999999999999,10.57,-5.880000000000001,14.420000000000002,-0.34984655852696184,0.08855765015344147,-0.1854449802718106
1745337710.4902,0.962824,-0.053924,-0.052216,9.975000000000001,-4.83,14.280000000000001,-0.34984655852696184,0.08855765015344147,-0.1854449802718106
1745337710.495105,0.994544,-0.051484,-0.03904,9.24,-3.99,14.175,-0.34984655852696184,0.08855765015344147,-0.1854449802718106
1745337710.4999752,1.04066,-0.062464,-0.01098,8.085,-2.415,14.14,-0.34984655852696184,0.08855765015344147,-0.1854449802718106
1745337710.5047834,1.02846,-0.091988,-0.060024,7.140000000000001,-1.995,14.035000000000002,-0.34984655852696184,0.08855765015344147,-0.1854449802718106
1745337710.5096571,1.00528,-0.10638399999999999,-0.037576,6.545000000000001,-0.525,13.055000000000001,-0.34984655852696184,0.08855765015344147,-0.1854449802718106
1745337710.5145543,1.020164,-0.120292,-0.059292,6.370000000000001,-0.8400000000000001,12.250000000000002,-0.34984655852696184,0.08855765015344147,-0.1854449802718106
1745337710.5208664,1.033584,-0.105652,-0.04636,5.8100000000000005,-0.10500000000000001,10.780000000000001,-0.34984655852696184,0.08855765015344147,-0.1854449802718106
1745337710.5250502,1.041148,-0.110776,-0.050752,5.8100000000000005,0.7350000000000001,9.555000000000001,-0.34984655852696184,0.08855765015344147,-0.1854449802718106
1745337710.5296323,1.058472,-0.115412,-0.010735999999999999,5.425000000000001,0.5950000000000001,8.47,-0.34984655852696184,0.08855765015344147,-0.1854449802718106
1745337710.5346394,1.096048,-0.100284,-0.010003999999999999,4.165,1.54,7.735,-0.34984655852696184,0.08855765015344147,-0.1854449802718106
1745337710.539494,1.113616,-0.101992,0.010492,3.3600000000000003,1.8900000000000001,6.930000000000001,-0.34984655852696184,0.08855765015344147,-0.1854449802718106
1745337710.5442884,1.111664,-0.1098,0.032208,2.5200000000000005,1.4700000000000002,6.055000000000001,-0.34984655852696184,0.08855765015344147,-0.1854449802718106
1745337710.549167,1.1204479999999999,-0.117852,0.058316,1.8200000000000003,0.8400000000000001,5.075,-0.34984655852696184,0.08855765015344147,-0.1854449802718106
1745337710.55404,1.135576,-0.121268,0.072468,1.1900000000000002,-0.24500000000000002,4.2,-0.34984655852696184,0.08855765015344147,-0.1854449802718106
1745337710.559527,1.149972,-0.120292,0.08052,0.665,-2.0650000000000004,3.325,-0.34984655852696184,0.08855765015344147,-0.1854449802718106
1745337710.5646064,1.156072,-0.11712,0.08662,0.14,-3.9200000000000004,2.2750000000000004,-0.34984655852696184,0.08855765015344147,-0.1854449802718106
1745337710.5723212,1.149972,-0.113948,0.088328,-0.42000000000000004,-5.985,1.2600000000000002,-0.34984655852696184,0.08855765015344147,-0.1854449802718106
1745337710.5809772,1.120204,-0.103944,0.06466,-1.995,-10.465000000000002,-1.2950000000000002,-0.34984655852696184,0.08855765015344147,-0.1854449802718106
1745337710.5844903,1.117764,-0.13176,0.08418,-3.08,-12.845,-1.2950000000000002,-0.34984655852696184,0.08855765015344147,-0.1854449802718106
1745337710.5893412,1.137284,-0.129076,0.08003199999999999,-3.8500000000000005,-16.065,-2.765,-0.34984655852696184,0.08855765015344147,-0.1854449802718106
1745337710.594211,1.129964,-0.125416,0.087352,-4.445,-18.55,-3.7100000000000004,-0.34984655852696184,0.08855765015344147,-0.1854449802718106
1745337710.5992484,1.10532,-0.13298,0.07808,-4.9,-20.895000000000003,-4.095000000000001,-0.34984655852696184,0.08855765015344147,-0.1854449802718106
1745337710.6054027,1.101416,-0.131272,0.108824,-6.545000000000001,-25.165000000000003,-5.32,-0.34984655852696184,0.08855765015344147,-0.1854449802718106
1745337710.6100624,1.209264,-0.113216,0.11053199999999999,-7.525,-27.160000000000004,-6.195,-0.3419552827707146,0.08943445857080227,-0.1823761508110478
1745337710.614884,1.207068,-0.122732,0.110288,-8.645000000000001,-27.895000000000003,-5.635000000000001,-0.3419552827707146,0.08943445857080227,-0.1823761508110478
1745337710.6197767,1.245376,-0.10760399999999999,0.10638399999999999,-10.15,-27.335,-6.055000000000001,-0.3419552827707146,0.08943445857080227,-0.1823761508110478
1745337710.6246426,1.296616,-0.10126,0.066368,-11.55,-26.040000000000003,-6.300000000000001,-0.3419552827707146,0.08943445857080227,-0.1823761508110478
1745337710.630184,1.330044,-0.098332,0.114192,-13.23,-22.365000000000002,-5.53,-0.3419552827707146,0.08943445857080227,-0.1823761508110478
1745337710.638663,1.404708,-0.103944,0.118828,-16.1,-16.73,-3.115,-0.3419552827707146,0.08943445857080227,-0.1823761508110478
1745337710.6421018,1.404708,-0.103944,0.118828,-17.5,-13.545000000000002,-3.2550000000000003,-0.3419552827707146,0.08943445857080227,-0.1823761508110478
1745337710.6470516,1.506456,-0.108824,0.111264,-18.655,-7.630000000000001,-2.66,-0.3419552827707146,0.08943445857080227,-0.1823761508110478
1745337710.6519482,1.516704,-0.101016,0.17934,-20.020000000000003,1.155,-1.155,-0.3419552827707146,0.08943445857080227,-0.1823761508110478
1745337710.6567566,1.555256,-0.078812,0.1769,-21.035000000000004,4.305000000000001,-0.07,-0.3419552827707146,0.08943445857080227,-0.1823761508110478
1745337710.6616504,1.558916,-0.101016,0.172264,-22.085,9.135000000000002,0.8400000000000001,-0.3419552827707146,0.08943445857080227,-0.1823761508110478
1745337710.6665223,1.552084,-0.10345599999999999,0.183976,-23.275000000000002,14.525000000000002,0.385,-0.3419552827707146,0.08943445857080227,-0.1823761508110478
1745337710.6721025,1.5006,-0.122732,0.1891,-24.325000000000003,19.740000000000002,0.035,-0.3419552827707146,0.08943445857080227,-0.1823761508110478
1745337710.6766157,1.436672,-0.14274,0.197396,-24.92,23.415000000000003,-1.2950000000000002,-0.3419552827707146,0.08943445857080227,-0.1823761508110478
1745337710.6813376,1.397388,-0.142984,0.168116,-25.060000000000002,24.885,-2.345,-0.3419552827707146,0.08943445857080227,-0.1823761508110478
1745337710.6862772,1.317356,-0.157868,0.169092,-25.305000000000003,26.565,-3.3950000000000005,-0.3419552827707146,0.08943445857080227,-0.1823761508110478
1745337710.691993,1.1941359999999999,-0.166164,0.165188,-25.165000000000003,26.53,-4.865,-0.3419552827707146,0.08943445857080227,-0.1823761508110478
1745337710.6960464,1.13094,-0.150548,0.17177599999999998,-25.095000000000002,25.480000000000004,-5.8100000000000005,-0.3419552827707146,0.08943445857080227,-0.1823761508110478
1745337710.700873,1.125084,-0.165432,0.15494,-25.060000000000002,23.520000000000003,-6.6850000000000005,-0.3419552827707146,0.08943445857080227,-0.1823761508110478
1745337710.705743,1.0474919999999999,-0.171044,0.126148,-24.745,20.545,-7.910000000000001,-0.3419552827707146,0.08943445857080227,-0.1823761508110478
1745337710.7106452,0.9681919999999999,-0.12956399999999998,0.110044,-24.605000000000004,17.605,-8.715000000000002,-0.3419552827707146,0.08943445857080227,-0.1823761508110478
1745337710.7164152,0.958432,-0.154452,0.123708,-24.92,16.135,-8.855,-0.3419552827707146,0.08943445857080227,-0.1823761508110478
1745337710.7206752,1.025044,-0.170068,0.11956,-24.64,13.580000000000002,-9.030000000000001,-0.3419552827707146,0.08943445857080227,-0.1823761508110478
1745337710.7254915,0.99064,-0.155184,0.112484,-24.220000000000002,11.760000000000002,-9.975000000000001,-0.3419552827707146,0.08943445857080227,-0.1823761508110478
1745337710.730457,0.9484279999999999,-0.16226,0.140544,-23.660000000000004,9.38,-10.045000000000002,-0.3419552827707146,0.08943445857080227,-0.1823761508110478
1745337710.735363,0.983076,-0.165188,0.143472,-23.205000000000002,5.285,-11.095,-0.3419552827707146,0.08943445857080227,-0.1823761508110478
1745337710.7401798,0.986004,-0.14713199999999999,0.166164,-22.365000000000002,2.345,-10.255,-0.3419552827707146,0.08943445857080227,-0.1823761508110478
1745337710.7462428,1.148752,-0.19641999999999998,0.13078399999999998,-21.525000000000002,0.42000000000000004,-9.940000000000001,-0.3419552827707146,0.08943445857080227,-0.1823761508110478
1745337710.7499022,1.148752,-0.19641999999999998,0.13078399999999998,-21.000000000000004,2.555,-10.815000000000001,-0.3419552827707146,0.08943445857080227,-0.1823761508110478
1745337710.755392,1.164856,-0.234484,0.136396,-20.37,5.250000000000001,-11.795000000000002,-0.3419552827707146,0.08943445857080227,-0.1823761508110478
1745337710.7604713,1.068964,-0.163724,0.15494,-19.46,6.6850000000000005,-12.005,-0.3419552827707146,0.08943445857080227,-0.1823761508110478
1745337710.7651844,1.105564,-0.183244,0.166408,-18.830000000000002,6.825000000000001,-11.235000000000001,-0.3419552827707146,0.08943445857080227,-0.1823761508110478
1745337710.7701094,1.138504,-0.202032,0.139324,-17.92,7.105,-11.025,-0.3419552827707146,0.08943445857080227,-0.1823761508110478
1745337710.7750237,1.166076,-0.24448799999999998,0.139568,-16.87,10.255,-10.955000000000002,-0.3419552827707146,0.08943445857080227,-0.1823761508110478
1745337710.7798836,1.1529,-0.18056,0.14249599999999998,-15.610000000000001,13.580000000000002,-12.46,-0.3419552827707146,0.08943445857080227,-0.1823761508110478
1745337710.7847066,1.1253279999999999,-0.175436,0.276452,-15.855000000000002,18.165000000000003,-12.495000000000001,-0.3419552827707146,0.08943445857080227,-0.1823761508110478
1745337710.789584,1.14192,-0.167872,0.618296,-27.405,27.055000000000003,-16.1,-0.3419552827707146,0.08943445857080227,-0.1823761508110478
1745337710.794569,0.73688,-0.18422,0.282308,-34.195,16.905,-16.485000000000003,-0.3419552827707146,0.08943445857080227,-0.1823761508110478
1745337710.8017688,1.082384,0.15616,0.06954,-36.540000000000006,6.370000000000001,-20.37,-0.3419552827707146,0.08943445857080227,-0.1823761508110478
1745337710.8059776,1.3969,0.14396,0.06954,-41.19500000000001,20.51,-9.835,-0.33669443226654977,0.07715914072775099,-0.1841297676457694
1745337710.8108573,0.717116,-0.23399599999999998,0.429684,-40.705000000000005,27.44,-14.665000000000001,-0.33669443226654977,0.07715914072775099,-0.1841297676457694
1745337710.8157895,1.026264,-0.098332,0.159332,-38.36000000000001,16.275000000000002,-20.23,-0.33669443226654977,0.07715914072775099,-0.1841297676457694
1745337710.8207045,1.0784799999999999,-0.18056,0.133224,-38.99,19.355,-21.630000000000003,-0.33669443226654977,0.07715914072775099,-0.1841297676457694
1745337710.825474,0.909388,-0.19763999999999998,0.16104,-37.1,22.26,-19.845000000000002,-0.33669443226654977,0.07715914072775099,-0.1841297676457694
1745337710.8303652,0.73688,-0.137128,0.272792,-34.755,22.505000000000003,-19.425,-0.33669443226654977,0.07715914072775099,-0.1841297676457694
1745337710.8352365,0.7339519999999999,-0.084912,0.267912,-33.565000000000005,15.96,-21.07,-0.33669443226654977,0.07715914072775099,-0.1841297676457694
1745337710.84087,0.854976,-0.079788,0.203252,-32.795,10.360000000000001,-21.28,-0.33669443226654977,0.07715914072775099,-0.1841297676457694
1745337710.845265,0.9137799999999999,-0.093696,0.084912,-32.480000000000004,8.610000000000001,-21.910000000000004,-0.33669443226654977,0.07715914072775099,-0.1841297676457694
1745337710.8530376,0.72834,-0.084424,0.107848,-32.480000000000004,12.635000000000002,-22.645000000000003,-0.33669443226654977,0.07715914072775099,-0.1841297676457694
1745337710.8568277,0.652212,-0.1037,0.18788,-31.955000000000002,2.24,-24.255000000000003,-0.33669443226654977,0.07715914072775099,-0.1841297676457694
1745337710.8617246,0.71004,-0.070272,0.07686,-30.975,2.4850000000000003,-24.395000000000003,-0.33669443226654977,0.07715914072775099,-0.1841297676457694
1745337710.8665307,0.7412719999999999,-0.053924,0.061,-30.065,0.7350000000000001,-23.485000000000003,-0.33669443226654977,0.07715914072775099,-0.1841297676457694
1745337710.871396,0.715164,-0.079788,0.050263999999999996,-29.400000000000002,-1.0850000000000002,-23.590000000000003,-0.33669443226654977,0.07715914072775099,-0.1841297676457694
1745337710.8762653,0.676124,-0.09174399999999999,0.056119999999999996,-28.42,-3.99,-24.675,-0.33669443226654977,0.07715914072775099,-0.1841297676457694
1745337710.882036,0.70638,-0.05368,0.034404,-27.44,-6.6850000000000005,-25.095000000000002,-0.33669443226654977,0.07715914072775099,-0.1841297676457694
1745337710.8863018,0.73078,-0.060756,0.025131999999999998,-26.775000000000002,-8.33,-24.71,-0.33669443226654977,0.07715914072775099,-0.1841297676457694
1745337710.8910353,0.676368,-0.031232,0.07002799999999999,-26.145000000000003,-8.96,-25.025000000000002,-0.33669443226654977,0.07715914072775099,-0.1841297676457694
1745337710.8960266,0.717116,-0.047335999999999996,0.055388,-25.165000000000003,-12.705000000000002,-23.03,-0.33669443226654977,0.07715914072775099,-0.1841297676457694
1745337710.9009497,0.72224,-0.041968,0.02196,-24.430000000000003,-13.895000000000001,-22.925,-0.33669443226654977,0.07715914072775099,-0.1841297676457694
1745337710.9079945,0.7129679999999999,-0.041236,0.043188,-23.730000000000004,-13.72,-23.03,-0.33669443226654977,0.07715914072775099,-0.1841297676457694
1745337710.911507,0.738344,-0.017079999999999998,0.0427,-22.995,-14.665000000000001,-22.295,-0.33669443226654977,0.07715914072775099,-0.1841297676457694
1745337710.9163778,0.75152,-0.019032,0.029768,-22.435000000000002,-15.610000000000001,-21.735000000000003,-0.33669443226654977,0.07715914072775099,-0.1841297676457694
1745337710.9214659,0.739808,-0.010492,0.036844,-21.665000000000003,-15.540000000000001,-20.895000000000003,-0.33669443226654977,0.07715914072775099,-0.1841297676457694
1745337710.9274836,0.744932,-0.009271999999999999,0.032208,-20.720000000000002,-16.485000000000003,-19.53,-0.33669443226654977,0.07715914072775099,-0.1841297676457694
1745337710.9321563,0.761768,-0.006588,0.027816,-20.44,-16.66,-18.830000000000002,-0.33669443226654977,0.07715914072775099,-0.1841297676457694
1745337710.9370763,0.777384,0.00244,0.020252,-20.195,-16.485000000000003,-17.815,-0.33669443226654977,0.07715914072775099,-0.1841297676457694
1745337710.9420273,0.786412,0.008296,0.018788,-20.055000000000003,-16.310000000000002,-16.94,-0.33669443226654977,0.07715914072775099,-0.1841297676457694
1745337710.9468608,0.803492,0.01098,0.010003999999999999,-19.880000000000003,-16.310000000000002,-15.575000000000001,-0.33669443226654977,0.07715914072775099,-0.1841297676457694
1745337710.9516585,0.80886,0.009028,0.0046359999999999995,-19.6,-16.065,-14.14,-0.33669443226654977,0.07715914072775099,-0.1841297676457694
1745337710.959491,0.8103239999999999,0.0060999999999999995,-0.006588,-19.250000000000004,-15.680000000000001,-12.775,-0.33669443226654977,0.07715914072775099,-0.1841297676457694
1745337710.9632473,0.808372,0.005856,-0.013663999999999999,-18.935000000000002,-15.05,-11.515,-0.33669443226654977,0.07715914072775099,-0.1841297676457694
1745337710.9693532,0.812032,0.011467999999999999,-0.017811999999999998,-17.990000000000002,-14.14,-9.555000000000001,-0.33669443226654977,0.07715914072775099,-0.1841297676457694
1745337710.9740117,0.81374,0.011712,-0.020496,-17.430000000000003,-13.860000000000001,-8.33,-0.33669443226654977,0.07715914072775099,-0.1841297676457694
1745337710.9789379,0.818864,0.012688,-0.022203999999999998,-17.115000000000002,-13.615000000000002,-7.245000000000001,-0.33669443226654977,0.07715914072775099,-0.1841297676457694
1745337710.983871,0.829112,0.011712,-0.025376,-16.66,-13.090000000000002,-6.23,-0.33669443226654977,0.07715914072775099,-0.1841297676457694
1745337710.988752,0.8361879999999999,0.0075639999999999995,-0.024888,-16.240000000000002,-12.670000000000002,-5.495,-0.33669443226654977,0.07715914072775099,-0.1841297676457694
1745337710.9935074,0.851804,0.008539999999999999,-0.026595999999999998,-15.820000000000002,-12.075000000000001,-4.760000000000001,-0.33669443226654977,0.07715914072775099,-0.1841297676457694
1745337710.998397,0.858636,0.008539999999999999,-0.025131999999999998,-15.295000000000002,-11.445,-3.9200000000000004,-0.33669443226654977,0.07715914072775099,-0.1841297676457694
1745337711.0032752,0.864248,0.008052,-0.023912,-14.735000000000001,-10.850000000000001,-3.3600000000000003,-0.35686102586584834,0.08154318281455503,-0.17799210872424376
1745337711.0089996,0.875472,0.0068319999999999995,-0.025376,-14.14,-10.395000000000001,-2.8000000000000003,-0.35686102586584834,0.08154318281455503,-0.17799210872424376
1745337711.0166948,0.8854759999999999,0.005612,-0.02562,-12.81,-9.030000000000001,-1.6450000000000002,-0.35686102586584834,0.08154318281455503,-0.17799210872424376
1745337711.0202823,0.888892,0.000244,-0.02562,-12.81,-9.030000000000001,-1.6450000000000002,-0.35686102586584834,0.08154318281455503,-0.17799210872424376
1745337711.0252244,0.898652,0.0026839999999999998,-0.027327999999999998,-12.005,-8.505,-1.5750000000000002,-0.35686102586584834,0.08154318281455503,-0.17799210872424376
1745337711.0301108,0.904508,0.001464,-0.02928,-9.975000000000001,-8.085,-1.435,-0.35686102586584834,0.08154318281455503,-0.17799210872424376
1745337711.0349016,0.914024,0.000244,-0.028059999999999998,-8.96,-7.840000000000001,-1.3650000000000002,-0.35686102586584834,0.08154318281455503,-0.17799210872424376
1745337711.0397844,0.925736,0.002928,-0.026595999999999998,-7.840000000000001,-7.630000000000001,-1.3650000000000002,-0.35686102586584834,0.08154318281455503,-0.17799210872424376
1745337711.0446575,0.941108,0.0046359999999999995,-0.024888,-6.615,-7.280000000000001,-1.3650000000000002,-0.35686102586584834,0.08154318281455503,-0.17799210872424376
1745337711.0503645,0.953796,0.00732,-0.024399999999999998,-5.495,-7.105,-1.4700000000000002,-0.35686102586584834,0.08154318281455503,-0.17799210872424376
1745337711.0547376,0.9694119999999999,0.005612,-0.027816,-4.340000000000001,-6.8950000000000005,-1.5050000000000001,-0.35686102586584834,0.08154318281455503,-0.17799210872424376
1745337711.0595047,0.970388,0.007808,-0.024888,-3.115,-6.4750000000000005,-1.6800000000000002,-0.35686102586584834,0.08154318281455503,-0.17799210872424376
1745337711.0644927,0.9730719999999999,0.009516,-0.024644,-1.7500000000000002,-6.44,-1.8550000000000002,-0.35686102586584834,0.08154318281455503,-0.17799210872424376
1745337711.0702362,0.9779519999999999,0.012199999999999999,-0.020739999999999998,-0.35000000000000003,-6.545000000000001,-1.8550000000000002,-0.35686102586584834,0.08154318281455503,-0.17799210872424376
1745337711.0741801,0.9840519999999999,0.012931999999999999,-0.018788,1.155,-6.65,-1.7500000000000002,-0.35686102586584834,0.08154318281455503,-0.17799210872424376
1745337711.079052,0.99552,0.015127999999999999,-0.010248,2.6950000000000003,-6.965000000000001,-2.1,-0.35686102586584834,0.08154318281455503,-0.17799210872424376
1745337711.0839424,1.01382,0.016592,-0.00122,4.095000000000001,-7.000000000000001,-1.7500000000000002,-0.35686102586584834,0.08154318281455503,-0.17799210872424376
1745337711.0891802,1.030656,0.018056,0.011467999999999999,5.635000000000001,-6.825000000000001,-1.61,-0.35686102586584834,0.08154318281455503,-0.17799210872424376
1745337711.0951395,1.051884,0.020007999999999998,0.022692,7.140000000000001,-6.6850000000000005,-1.4000000000000001,-0.35686102586584834,0.08154318281455503,-0.17799210872424376
1745337711.099806,1.071648,0.020252,0.033672,8.435,-6.405,-1.05,-0.35686102586584834,0.08154318281455503,-0.17799210872424376
1745337711.1048055,1.082384,0.016592,0.041479999999999996,9.765,-5.74,-0.9800000000000001,-0.35686102586584834,0.08154318281455503,-0.17799210872424376
1745337711.1096864,1.081896,0.009271999999999999,0.044652,12.215000000000002,-5.670000000000001,-1.05,-0.35686102586584834,0.08154318281455503,-0.17799210872424376
1745337711.1145284,1.095804,0.012199999999999999,0.048799999999999996,13.160000000000002,-5.705000000000001,-0.9100000000000001,-0.35686102586584834,0.08154318281455503,-0.17799210872424376
1745337711.1222823,1.11752,0.012444,0.049044,14.14,-5.355,-0.8400000000000001,-0.35686102586584834,0.08154318281455503,-0.17799210872424376
1745337711.1258261,1.14314,0.019032,0.043676,15.085,-5.180000000000001,-0.5950000000000001,-0.35686102586584834,0.08154318281455503,-0.17799210872424376
1745337711.1310713,1.15168,0.019032,0.042456,15.890000000000002,-4.9,-0.525,-0.35686102586584834,0.08154318281455503,-0.17799210872424376
1745337711.1371965,1.153632,0.024644,0.043676,16.520000000000003,-4.69,-0.385,-0.35686102586584834,0.08154318281455503,-0.17799210872424376
1745337711.1419103,1.147776,0.020984,0.049532,17.01,-4.305000000000001,0.21000000000000002,-0.35686102586584834,0.08154318281455503,-0.17799210872424376
1745337711.1468337,1.146556,0.02684,0.0549,26.495,-4.9,0.805,-0.35686102586584834,0.08154318281455503,-0.17799210872424376
1745337711.1517317,1.157536,0.031476,0.063196,18.55,-5.355,0.9450000000000001,-0.35686102586584834,0.08154318281455503,-0.17799210872424376
1745337711.156608,1.145824,0.02928,0.073444,19.180000000000003,-5.985,0.42000000000000004,-0.35686102586584834,0.08154318281455503,-0.17799210872424376
1745337711.1614304,1.1326479999999999,0.03904,0.10467599999999999,19.880000000000003,-6.545000000000001,-0.45500000000000007,-0.35686102586584834,0.08154318281455503,-0.17799210872424376
1745337711.1663103,1.062376,0.055876,0.117364,20.335,-7.07,-1.1900000000000002,-0.35686102586584834,0.08154318281455503,-0.17799210872424376
1745337711.1712673,1.105564,0.023424,0.094184,21.07,-7.945000000000001,-1.435,-0.35686102586584834,0.08154318281455503,-0.17799210872424376
1745337711.177871,1.1228879999999999,0.02928,0.097844,22.19,-8.05,-1.8550000000000002,-0.35686102586584834,0.08154318281455503,-0.17799210872424376
1745337711.1820202,1.149972,0.04026,0.0915,23.555000000000003,-8.155000000000001,-1.54,-0.35686102586584834,0.08154318281455503,-0.17799210872424376
1745337711.1868808,1.183644,0.039772,0.096624,24.815,-7.840000000000001,-1.61,-0.35686102586584834,0.08154318281455503,-0.17799210872424376
1745337711.1916986,1.209264,0.056852,0.105408,26.075000000000003,-6.615,-1.6800000000000002,-0.35686102586584834,0.08154318281455503,-0.17799210872424376
1745337711.196577,1.250744,0.06466,0.12834399999999999,27.160000000000004,-5.040000000000001,-1.8900000000000001,-0.35686102586584834,0.08154318281455503,-0.17799210872424376
1745337711.2019062,1.31028,0.074664,0.143472,27.965000000000003,-3.115,-1.8900000000000001,-0.3761508110477861,0.08768084173608066,-0.1819377466023674
1745337711.2073817,1.362496,0.080764,0.162016,28.560000000000002,-0.28,0.035,-0.3761508110477861,0.08768084173608066,-0.1819377466023674
1745337711.2121434,1.41276,0.082228,0.191052,28.910000000000004,7.840000000000001,1.0150000000000001,-0.3761508110477861,0.08768084173608066,-0.1819377466023674
1745337711.2169633,1.471808,0.08784,0.220576,29.610000000000003,12.075000000000001,2.415,-0.3761508110477861,0.08768084173608066,-0.1819377466023674
1745337711.2218516,1.524024,0.082716,0.226432,29.785000000000004,16.87,3.5000000000000004,-0.3761508110477861,0.08768084173608066,-0.1819377466023674
1745337711.2267294,1.553548,0.07442,0.246684,30.03,21.07,4.375,-0.3761508110477861,0.08768084173608066,-0.1819377466023674
1745337711.2338202,1.52744,0.072468,0.250588,30.310000000000002,25.165000000000003,5.32,-0.3761508110477861,0.08768084173608066,-0.1819377466023674
1745337711.2378368,1.47986,0.072712,0.243756,30.625000000000004,28.000000000000004,5.705000000000001,-0.3761508110477861,0.08768084173608066,-0.1819377466023674
1745337711.2425828,1.409832,0.091256,0.23912,30.870000000000005,29.540000000000003,5.775,-0.3761508110477861,0.08768084173608066,-0.1819377466023674
1745337711.247578,1.339804,0.101504,0.24326799999999998,31.150000000000002,30.555000000000003,6.370000000000001,-0.3761508110477861,0.08768084173608066,-0.1819377466023674
1745337711.2524855,1.2719719999999999,0.107116,0.229116,31.290000000000003,30.205000000000002,6.615,-0.3761508110477861,0.08768084173608066,-0.1819377466023674
1745337711.2572908,1.200968,0.102236,0.225944,31.430000000000003,29.715000000000003,6.6850000000000005,-0.3761508110477861,0.08768084173608066,-0.1819377466023674
1745337711.2621503,1.159732,0.1098,0.226676,31.675000000000004,28.315,6.86,-0.3761508110477861,0.08768084173608066,-0.1819377466023674
1745337711.267048,1.094828,0.097112,0.210816,32.23500000000001,26.215000000000003,7.3500000000000005,-0.3761508110477861,0.08768084173608066,-0.1819377466023674
1745337711.2722645,1.0365119999999999,0.090524,0.21862399999999999,32.865,23.695000000000004,7.700000000000001,-0.3761508110477861,0.08768084173608066,-0.1819377466023674
1745337711.2778475,0.998692,0.090524,0.214476,34.685,16.415000000000003,8.365,-0.3761508110477861,0.08768084173608066,-0.1819377466023674
1745337711.2857969,0.989908,0.09394,0.215696,35.665000000000006,12.565000000000001,8.75,-0.3761508110477861,0.08768084173608066,-0.1819377466023674
1745337711.2894735,0.992592,0.09272,0.199592,36.75,8.925,9.135000000000002,-0.3761508110477861,0.08768084173608066,-0.1819377466023674
1745337711.2943628,1.011136,0.100284,0.205204,37.870000000000005,5.845000000000001,8.785,-0.3761508110477861,0.08768084173608066,-0.1819377466023674
1745337711.2991774,1.015284,0.10467599999999999,0.187392,38.78,3.22,9.030000000000001,-0.3761508110477861,0.08768084173608066,-0.1819377466023674
1745337711.3040736,1.027484,0.12322,0.187636,39.655,1.7500000000000002,9.030000000000001,-0.3761508110477861,0.08768084173608066,-0.1819377466023674
1745337711.308941,1.023824,0.11956,0.187392,40.215,0.7000000000000001,9.695,-0.3761508110477861,0.08768084173608066,-0.1819377466023674
1745337711.3141587,1.04554,0.114192,0.21154799999999999,40.775000000000006,0.0,9.975000000000001,-0.3761508110477861,0.08768084173608066,-0.1819377466023674
1745337711.3196893,1.075796,0.159332,0.18544,41.650000000000006,7.945000000000001,9.695,-0.3761508110477861,0.08768084173608066,-0.1819377466023674
1745337711.324439,1.069452,0.147376,0.146156,41.545,2.7300000000000004,9.590000000000002,-0.3761508110477861,0.08768084173608066,-0.1819377466023674
1745337711.329383,1.0426119999999999,0.109068,0.180316,42.105000000000004,4.025,8.015,-0.3761508110477861,0.08768084173608066,-0.1819377466023674
1745337711.3342953,1.044808,0.127368,0.186172,42.35,5.635000000000001,7.700000000000001,-0.3761508110477861,0.08768084173608066,-0.1819377466023674
1745337711.340444,1.028216,0.1464,0.16958,42.385000000000005,6.86,8.715000000000002,-0.3761508110477861,0.08768084173608066,-0.1819377466023674
1745337711.3439558,0.9657519999999999,0.1464,0.193492,42.385000000000005,9.73,9.135000000000002,-0.3761508110477861,0.08768084173608066,-0.1819377466023674
1745337711.3488367,1.012112,0.134444,0.192028,42.525000000000006,10.57,9.415000000000001,-0.3761508110477861,0.08768084173608066,-0.1819377466023674
1745337711.3537462,1.066524,0.124196,0.157624,42.595000000000006,12.495000000000001,9.205,-0.3761508110477861,0.08768084173608066,-0.1819377466023674
1745337711.3593705,1.05652,0.123464,0.165432,42.385000000000005,16.73,8.680000000000001,-0.3761508110477861,0.08768084173608066,-0.1819377466023674
1745337711.3637006,1.007476,0.119072,0.180072,42.315000000000005,19.880000000000003,8.82,-0.3761508110477861,0.08768084173608066,-0.1819377466023674
1745337711.368519,0.982344,0.103944,0.1586,42.315000000000005,21.840000000000003,9.100000000000001,-0.3761508110477861,0.08768084173608066,-0.1819377466023674
1745337711.373494,0.965996,0.11468,0.173728,42.525000000000006,23.555000000000003,9.205,-0.3761508110477861,0.08768084173608066,-0.1819377466023674
1745337711.3784046,0.946964,0.11638799999999999,0.145424,42.7,24.500000000000004,9.625000000000002,-0.3761508110477861,0.08768084173608066,-0.1819377466023674
1745337711.3831863,0.9274439999999999,0.12322,0.144936,42.525000000000006,26.145000000000003,10.010000000000002,-0.3761508110477861,0.08768084173608066,-0.1819377466023674
1745337711.3880847,0.901092,0.105164,0.141764,42.105000000000004,27.335,10.185,-0.3761508110477861,0.08768084173608066,-0.1819377466023674
1745337711.394132,0.877912,0.10736,0.16006399999999998,41.580000000000005,27.965000000000003,10.010000000000002,-0.3761508110477861,0.08768084173608066,-0.1819377466023674
1745337711.3983839,0.851804,0.102236,0.15738,40.705000000000005,27.965000000000003,9.66,-0.3700131521262604,0.08329679964927664,-0.22884699693117053
1745337711.40303,0.840824,0.076616,0.15616,39.550000000000004,27.37,9.170000000000002,-0.3700131521262604,0.08329679964927664,-0.22884699693117053
1745337711.4077632,0.80276,0.083448,0.14249599999999998,38.045,27.37,9.345,-0.3700131521262604,0.08329679964927664,-0.22884699693117053
1745337711.4127007,0.769332,0.058804,0.15494,36.82,27.300000000000004,10.010000000000002,-0.3700131521262604,0.08329679964927664,-0.22884699693117053
1745337711.4176252,0.7646959999999999,0.049776,0.157868,35.315000000000005,26.005000000000003,10.325000000000001,-0.3700131521262604,0.08329679964927664,-0.22884699693117053
1745337711.4224844,0.756644,0.049044,0.144204,33.6,25.025000000000002,10.395000000000001,-0.3700131521262604,0.08329679964927664,-0.22884699693117053
1745337711.42729,0.74786,0.064904,0.14762,32.410000000000004,22.400000000000002,10.99,-0.3700131521262604,0.08329679964927664,-0.22884699693117053
1745337711.432168,0.760792,0.055632,0.10760399999999999,29.890000000000004,22.540000000000003,11.410000000000002,-0.3700131521262604,0.08329679964927664,-0.22884699693117053
1745337711.4370556,0.72468,0.031964,0.120048,29.365000000000002,20.580000000000002,11.48,-0.3700131521262604,0.08329679964927664,-0.22884699693117053
1745337711.442718,0.724436,0.016104,0.086376,28.945000000000004,19.040000000000003,11.795000000000002,-0.3700131521262604,0.08329679964927664,-0.22884699693117053
1745337711.44928,0.753228,0.017568,0.070516,28.665000000000003,17.92,11.585,-0.3700131521262604,0.08329679964927664,-0.22884699693117053
1745337711.4530277,0.752008,0.015616,0.066612,28.525000000000002,17.395000000000003,12.005,-0.3700131521262604,0.08329679964927664,-0.22884699693117053
1745337711.45799,0.72956,0.008539999999999999,0.068808,28.315,16.275000000000002,11.725000000000001,-0.3700131521262604,0.08329679964927664,-0.22884699693117053
1745337711.4628613,0.723948,0.014152,0.07442,28.245,14.875000000000002,11.9,-0.3700131521262604,0.08329679964927664,-0.22884699693117053
1745337711.4676409,0.7290719999999999,0.00732,0.055876,28.000000000000004,13.020000000000001,11.935,-0.3700131521262604,0.08329679964927664,-0.22884699693117053
1745337711.4725406,0.74054,0.003172,0.060024,27.545,11.865000000000002,11.935,-0.3700131521262604,0.08329679964927664,-0.22884699693117053
1745337711.4774065,0.721508,0.005124,0.051727999999999996,27.090000000000003,10.99,11.795000000000002,-0.3700131521262604,0.08329679964927664,-0.22884699693117053
1745337711.4831493,0.6810039999999999,0.018788,0.086376,26.67,10.535,10.71,-0.3700131521262604,0.08329679964927664,-0.22884699693117053
1745337711.4874742,0.734684,0.034159999999999996,0.060511999999999996,26.355000000000004,7.000000000000001,11.095,-0.3700131521262604,0.08329679964927664,-0.22884699693117053
1745337711.4921918,0.780312,0.0053679999999999995,0.024399999999999998,26.005000000000003,5.985,11.270000000000001,-0.3700131521262604,0.08329679964927664,-0.22884699693117053
1745337711.4971938,0.734684,-0.0068319999999999995,0.033672,25.62,7.455000000000001,10.290000000000001,-0.3700131521262604,0.08329679964927664,-0.22884699693117053
1745337711.5034337,0.74176,-0.015616,0.01952,25.515000000000004,5.425000000000001,10.500000000000002,-0.3700131521262604,0.08329679964927664,-0.22884699693117053
1745337711.5069354,0.74176,-0.015616,0.01952,25.340000000000003,5.460000000000001,10.325000000000001,-0.3700131521262604,0.08329679964927664,-0.22884699693117053
1745337711.511795,0.737124,-0.017079999999999998,0.0305,25.200000000000003,4.445,10.360000000000001,-0.3700131521262604,0.08329679964927664,-0.22884699693117053
1745337711.516671,0.750788,-0.016347999999999998,0.022935999999999998,25.200000000000003,3.8500000000000005,10.22,-0.3700131521262604,0.08329679964927664,-0.22884699693117053
1745337711.5218337,0.7783599999999999,-0.0034159999999999998,0.026352,25.130000000000003,3.7100000000000004,9.73,-0.3700131521262604,0.08329679964927664,-0.22884699693117053
1745337711.5273361,0.818864,-0.001464,0.018056,25.025000000000002,3.9200000000000004,9.590000000000002,-0.3700131521262604,0.08329679964927664,-0.22884699693117053
1745337711.5319085,0.822524,-0.002196,0.028059999999999998,24.745,4.62,9.625000000000002,-0.3700131521262604,0.08329679964927664,-0.22884699693117053
1745337711.5367956,0.82472,0.00488,0.013908,24.605000000000004,4.69,9.765,-0.3700131521262604,0.08329679964927664,-0.22884699693117053
1745337711.5417302,0.816668,0.003172,0.015372,24.220000000000002,5.180000000000001,10.080000000000002,-0.3700131521262604,0.08329679964927664,-0.22884699693117053
1745337711.546648,0.820572,-0.0060999999999999995,0.010248,23.94,4.865,10.080000000000002,-0.3700131521262604,0.08329679964927664,-0.22884699693117053
1745337711.5514553,0.844728,-0.006588,-0.00488,23.765,4.585000000000001,9.66,-0.3700131521262604,0.08329679964927664,-0.22884699693117053
1745337711.557511,0.86254,-0.006344,-0.004148,23.555000000000003,4.7250000000000005,9.100000000000001,-0.3700131521262604,0.08329679964927664,-0.22884699693117053
1745337711.5611992,0.9015799999999999,-0.008052,-0.001464,23.345000000000002,4.9,8.645000000000001,-0.3700131521262604,0.08329679964927664,-0.22884699693117053
1745337711.5668874,0.910364,0.0053679999999999995,-0.019275999999999998,23.17,4.83,7.630000000000001,-0.3700131521262604,0.08329679964927664,-0.22884699693117053
1745337711.5712943,0.833992,0.009028,-0.0053679999999999995,22.470000000000002,5.95,7.210000000000001,-0.3700131521262604,0.08329679964927664,-0.22884699693117053
1745337711.5760577,0.788852,0.015372,0.017324,21.98,4.585000000000001,6.4750000000000005,-0.3700131521262604,0.08329679964927664,-0.22884699693117053
1745337711.5810332,0.864248,0.01098,-0.012199999999999999,21.525000000000002,1.7500000000000002,5.565,-0.3700131521262604,0.08329679964927664,-0.22884699693117053
1745337711.5859253,0.9311039999999999,0.012444,-0.032695999999999996,20.825000000000003,1.8200000000000003,5.040000000000001,-0.3700131521262604,0.08329679964927664,-0.22884699693117053
1745337711.5907333,0.88938,0.003904,-0.01464,19.985000000000003,3.4650000000000003,4.585000000000001,-0.3700131521262604,0.08329679964927664,-0.22884699693117053
1745337711.5956097,0.857416,0.000244,0.015127999999999999,18.200000000000003,0.0,3.8850000000000002,-0.36036825953529156,0.0797895659798334,-0.2516440157825515
1745337711.6004796,0.904996,-0.007076,-0.004148,17.290000000000003,-0.9100000000000001,3.6050000000000004,-0.36036825953529156,0.0797895659798334,-0.2516440157825515
1745337711.6060805,0.955016,0.003904,-0.02196,16.1,-0.42000000000000004,3.5700000000000003,-0.36036825953529156,0.0797895659798334,-0.2516440157825515
1745337711.6197207,0.897188,0.001952,-0.005612,14.245000000000001,-3.43,3.6050000000000004,-0.36036825953529156,0.0797895659798334,-0.2516440157825515
1745337711.6233535,1.014064,0.028791999999999998,-0.011224,13.195000000000002,-4.445,3.7800000000000002,-0.36036825953529156,0.0797895659798334,-0.2516440157825515
1745337711.6282468,1.026264,0.01342,-0.011467999999999999,12.075000000000001,-5.215000000000001,4.69,-0.36036825953529156,0.0797895659798334,-0.2516440157825515
1745337711.6330261,1.011624,0.00122,0.0060999999999999995,9.8,-6.335000000000001,4.515000000000001,-0.36036825953529156,0.0797895659798334,-0.2516440157825515
1745337711.6379318,1.024556,-0.0060999999999999995,-0.00244,8.89,-6.755000000000001,4.095000000000001,-0.36036825953529156,0.0797895659798334,-0.2516440157825515
1745337711.6427917,1.06872,-0.01342,-0.016592,8.05,-6.0200000000000005,3.8500000000000005,-0.36036825953529156,0.0797895659798334,-0.2516440157825515
1745337711.6484282,1.073844,-0.0026839999999999998,0.012199999999999999,7.140000000000001,-6.265000000000001,3.9200000000000004,-0.36036825953529156,0.0797895659798334,-0.2516440157825515
1745337711.653381,1.0967799999999999,-0.030255999999999998,0.0075639999999999995,6.65,-7.105,3.6400000000000006,-0.36036825953529156,0.0797895659798334,-0.2516440157825515
1745337711.6580923,1.129476,-0.032695999999999996,0.0026839999999999998,6.195,-7.105,2.9400000000000004,-0.36036825953529156,0.0797895659798334,-0.2516440157825515
1745337711.6630623,1.139724,-0.025376,0.00732,5.565,-6.4750000000000005,2.3800000000000003,-0.36036825953529156,0.0797895659798334,-0.2516440157825515
1745337711.6679604,1.136064,-0.026108,0.023424,4.83,-6.0200000000000005,1.54,-0.36036825953529156,0.0797895659798334,-0.2516440157825515
1745337711.674675,1.1387479999999999,-0.014395999999999999,0.04758,4.0600000000000005,-5.635000000000001,-8.715000000000002,-0.36036825953529156,0.0797895659798334,-0.2516440157825515
1745337711.6780775,1.14924,0.010003999999999999,0.076372,2.9400000000000004,-5.495,-0.7000000000000001,-0.36036825953529156,0.0797895659798334,-0.2516440157825515
1745337711.6829455,1.158268,0.0068319999999999995,0.088572,1.4700000000000002,-6.300000000000001,-1.8550000000000002,-0.36036825953529156,0.0797895659798334,-0.2516440157825515
1745337711.6879702,1.1758359999999999,0.0034159999999999998,0.11053199999999999,0.0,-6.6850000000000005,-2.6950000000000003,-0.36036825953529156,0.0797895659798334,-0.2516440157825515
1745337711.694553,1.22732,0.0060999999999999995,0.11223999999999999,-2.9050000000000002,-8.120000000000001,-5.005000000000001,-0.36036825953529156,0.0797895659798334,-0.2516440157825515
1745337711.6992888,1.084336,0.056852,0.105896,-4.48,-8.4,-7.315,-0.36036825953529156,0.0797895659798334,-0.2516440157825515
1745337711.7042553,1.169492,-0.015372,0.132736,-6.825000000000001,-11.445,-7.595000000000001,-0.36036825953529156,0.0797895659798334,-0.2516440157825515
1745337711.7091522,1.264408,-0.03904,0.09759999999999999,-8.540000000000001,-13.370000000000001,-9.38,-0.36036825953529156,0.0797895659798334,-0.2516440157825515
1745337711.71404,1.266116,0.011712,0.107848,-9.765,-12.845,-11.445,-0.36036825953529156,0.0797895659798334,-0.2516440157825515
1745337711.718844,1.22,-0.025863999999999998,0.129076,-10.850000000000001,-12.915000000000001,-11.025,-0.36036825953529156,0.0797895659798334,-0.2516440157825515
1745337711.7267985,1.228296,-0.037576,0.142252,-11.830000000000002,-13.755,-12.600000000000001,-0.36036825953529156,0.0797895659798334,-0.2516440157825515
1745337711.7308874,1.230492,-0.027084,0.160308,-12.740000000000002,-13.545000000000002,-13.72,-0.36036825953529156,0.0797895659798334,-0.2516440157825515
1745337711.736654,1.211948,-0.008296,0.24448799999999998,-14.910000000000002,-15.330000000000002,-12.88,-0.36036825953529156,0.0797895659798334,-0.2516440157825515
1745337711.7412534,1.232688,-0.049776,0.21398799999999998,-15.890000000000002,-16.1,-12.600000000000001,-0.36036825953529156,0.0797895659798334,-0.2516440157825515
1745337711.746189,1.382016,-0.039528,0.218868,-16.905,-14.63,-12.775,-0.36036825953529156,0.0797895659798334,-0.2516440157825515
1745337711.751079,1.384212,-0.047335999999999996,0.243024,-18.095000000000002,-11.410000000000002,-11.830000000000002,-0.36036825953529156,0.0797895659798334,-0.2516440157825515
1745337711.7559593,1.375184,-0.016836,0.24912399999999998,-19.635,-8.365,-10.99,-0.36036825953529156,0.0797895659798334,-0.2516440157825515
1745337711.7607703,1.41886,-0.02928,0.268888,-20.755000000000003,-4.9,-9.065000000000001,-0.36036825953529156,0.0797895659798334,-0.2516440157825515
1745337711.7656484,1.524024,-0.008052,0.27327999999999997,-21.42,-1.0850000000000002,-7.630000000000001,-0.36036825953529156,0.0797895659798334,-0.2516440157825515
1745337711.7705524,1.570628,-0.015127999999999999,0.256932,-22.225,4.62,-5.95,-0.36036825953529156,0.0797895659798334,-0.2516440157825515
1745337711.7804623,1.575752,-0.043676,0.298412,-22.925,11.340000000000002,-5.250000000000001,-0.36036825953529156,0.0797895659798334,-0.2516440157825515
1745337711.7841086,1.6165,-0.046604,0.355508,-24.815,22.155,-7.035000000000001,-0.36036825953529156,0.0797895659798334,-0.2516440157825515
1745337711.7890737,1.5189,-0.071492,0.374296,-27.265000000000004,25.515000000000004,-7.805000000000001,-0.36036825953529156,0.0797895659798334,-0.2516440157825515
1745337711.793966,1.524268,-0.086132,0.375272,-27.685000000000002,26.985000000000003,-8.610000000000001,-0.38930293730819815,0.08768084173608066,-0.24331433581762385
1745337711.7987754,1.549156,0.022448,0.277672,-28.245,27.405,-11.9,-0.38930293730819815,0.08768084173608066,-0.24331433581762385
1745337711.8036575,1.309304,-0.09638,0.325496,-29.785000000000004,33.775000000000006,-9.765,-0.38930293730819815,0.08768084173608066,-0.24331433581762385
1745337711.8085005,1.1411879999999999,-0.06417199999999999,0.365512,-29.925000000000004,32.410000000000004,-13.125000000000002,-0.38930293730819815,0.08768084173608066,-0.24331433581762385
1745337711.813809,1.162172,-0.060024,0.320616,-29.540000000000003,27.475,-14.420000000000002,-0.38930293730819815,0.08768084173608066,-0.24331433581762385
1745337711.819753,1.183644,-0.054168,0.273524,-29.715000000000003,24.605000000000004,-15.085,-0.38930293730819815,0.08768084173608066,-0.24331433581762385
1745337711.824379,1.089216,-0.038308,0.270352,-30.275000000000002,24.325000000000003,-14.805000000000001,-0.38930293730819815,0.08768084173608066,-0.24331433581762385
1745337711.8292887,0.9952759999999999,-0.0793,0.319884,-30.520000000000003,17.045,-16.345000000000002,-0.38930293730819815,0.08768084173608066,-0.24331433581762385
1745337711.8356142,0.9262239999999999,-0.053924,0.264496,-31.01,13.545000000000002,-16.450000000000003,-0.38930293730819815,0.08768084173608066,-0.24331433581762385
1745337711.8392117,0.9262239999999999,-0.053924,0.264496,-31.605000000000004,9.905000000000001,-16.380000000000003,-0.38930293730819815,0.08768084173608066,-0.24331433581762385
1745337711.8440537,0.954772,-0.004148,0.2623,-31.990000000000002,6.44,-16.17,-0.38930293730819815,0.08768084173608066,-0.24331433581762385
1745337711.8488955,0.932812,-0.104188,0.244732,-31.955000000000002,3.1850000000000005,-14.735000000000001,-0.38930293730819815,0.08768084173608066,-0.24331433581762385
1745337711.8537784,0.918172,-0.068808,0.250344,-32.06,0.49000000000000005,-14.910000000000002,-0.38930293730819815,0.08768084173608066,-0.24331433581762385
1745337711.8595397,0.94672,-0.087596,0.25912799999999997,-32.620000000000005,-2.1350000000000002,-13.930000000000001,-0.38930293730819815,0.08768084173608066,-0.24331433581762385
1745337711.8637335,0.9694119999999999,-0.105164,0.254492,-33.32,-3.8500000000000005,-13.755,-0.38930293730819815,0.08768084173608066,-0.24331433581762385
1745337711.8685768,0.98698,-0.075396,0.250832,-34.160000000000004,-4.550000000000001,-14.105000000000002,-0.38930293730819815,0.08768084173608066,-0.24331433581762385
1745337711.8735662,0.996252,-0.092232,0.267668,-35.28,-4.550000000000001,-13.020000000000001,-0.38930293730819815,0.08768084173608066,-0.24331433581762385
1745337711.8785012,1.054324,-0.146888,0.281576,-36.365,-4.305000000000001,-12.81,-0.38930293730819815,0.08768084173608066,-0.24331433581762385
1745337711.8833787,1.046028,-0.153232,0.28011199999999997,-37.48500000000001,-2.66,-13.685,-0.38930293730819815,0.08768084173608066,-0.24331433581762385
1745337711.8889923,1.052372,-0.149328,0.298412,-38.325,-0.9800000000000001,-13.965000000000002,-0.38930293730819815,0.08768084173608066,-0.24331433581762385
1745337711.8931162,1.074088,-0.16104,0.266692,-39.13,0.385,-14.14,-0.38930293730819815,0.08768084173608066,-0.24331433581762385
1745337711.899165,1.078236,-0.125172,0.274012,-40.040000000000006,3.115,-15.400000000000002,-0.38930293730819815,0.08768084173608066,-0.24331433581762385
1745337711.9031868,1.110688,-0.197884,0.29402,-40.355000000000004,6.265000000000001,-15.820000000000002,-0.38930293730819815,0.08768084173608066,-0.24331433581762385
1745337711.9079309,1.068476,-0.152256,0.284016,-40.25000000000001,8.995000000000001,-17.605,-0.38930293730819815,0.08768084173608066,-0.24331433581762385
1745337711.9127736,1.02846,-0.11956,0.24912399999999998,-40.355000000000004,11.515,-18.375,-0.38930293730819815,0.08768084173608066,-0.24331433581762385
1745337711.9176736,0.983076,-0.164212,0.273036,-40.46,14.840000000000002,-18.060000000000002,-0.38930293730819815,0.08768084173608066,-0.24331433581762385
1745337711.9225466,0.949404,-0.136884,0.276696,-40.18000000000001,16.835,-20.720000000000002,-0.38930293730819815,0.08768084173608066,-0.24331433581762385
1745337711.9282434,0.977464,-0.129076,0.243512,-39.165000000000006,20.475,-21.455000000000002,-0.38930293730819815,0.08768084173608066,-0.24331433581762385
1745337711.9326105,0.99308,-0.121268,0.23546,-38.815000000000005,23.835,-23.17,-0.38930293730819815,0.08768084173608066,-0.24331433581762385
1745337711.9373963,0.946232,-0.092232,0.236924,-38.290000000000006,25.305000000000003,-23.87,-0.38930293730819815,0.08768084173608066,-0.24331433581762385
1745337711.9431286,0.849608,-0.1037,0.236924,-37.660000000000004,26.005000000000003,-25.55,-0.38930293730819815,0.08768084173608066,-0.24331433581762385
1745337711.947327,0.8522919999999999,-0.09516,0.21838,-36.925000000000004,25.935000000000002,-26.950000000000003,-0.38930293730819815,0.08768084173608066,-0.24331433581762385
1745337711.9520757,0.850584,-0.07002799999999999,0.20569199999999999,-36.155,26.040000000000003,-28.455000000000002,-0.38930293730819815,0.08768084173608066,-0.24331433581762385
1745337711.956947,0.796172,-0.063196,0.239364,-35.385000000000005,26.67,-29.26,-0.38930293730819815,0.08768084173608066,-0.24331433581762385
1745337711.961827,0.80276,-0.068564,0.210328,-34.545,25.025000000000002,-30.485000000000003,-0.38930293730819815,0.08768084173608066,-0.24331433581762385
1745337711.967243,0.79544,-0.052704,0.226432,-33.74,25.165000000000003,-32.165000000000006,-0.38930293730819815,0.08768084173608066,-0.24331433581762385
1745337711.9742823,0.7868999999999999,-0.041479999999999996,0.193736,-32.795,23.8,-34.230000000000004,-0.38930293730819815,0.08768084173608066,-0.24331433581762385
1745337711.9790027,0.769088,-0.04514,0.18666,-31.255000000000003,23.1,-35.385000000000005,-0.38930293730819815,0.08768084173608066,-0.24331433581762385
1745337711.9840188,0.718092,-0.034892,0.186904,-30.310000000000002,21.595000000000002,-35.910000000000004,-0.38930293730819815,0.08768084173608066,-0.24331433581762385
1745337711.990219,0.692716,-0.005124,0.170312,-29.610000000000003,19.53,-36.190000000000005,-0.3796580447172293,0.08417360806663744,-0.2209557211749233
1745337711.9961967,0.674416,0.018056,0.16469999999999999,-29.015000000000004,17.64,-36.085,-0.3796580447172293,0.08417360806663744,-0.2209557211749233
1745337711.9998808,0.659288,0.024156,0.164212,-28.980000000000004,16.17,-35.0,-0.3796580447172293,0.08417360806663744,-0.2209557211749233
1745337712.0047686,0.648552,0.023667999999999998,0.16104,-28.875000000000004,13.090000000000002,-34.965,-0.3796580447172293,0.08417360806663744,-0.2209557211749233
1745337712.0104454,0.665144,0.023912,0.146156,-28.735000000000003,10.255,-34.125,-0.3796580447172293,0.08417360806663744,-0.2209557211749233
1745337712.0162265,0.682956,0.026595999999999998,0.14005599999999999,-28.595000000000002,7.840000000000001,-32.655,-0.3796580447172293,0.08417360806663744,-0.2209557211749233
1745337712.0209455,0.68808,0.015127999999999999,0.124928,-28.35,3.1850000000000005,-31.955000000000002,-0.3796580447172293,0.08417360806663744,-0.2209557211749233
1745337712.0258355,0.68198,0.009271999999999999,0.111264,-27.37,1.12,-31.220000000000002,-0.3796580447172293,0.08417360806663744,-0.2209557211749233
1745337712.0307493,0.673684,0.008052,0.105652,-26.810000000000002,-1.12,-30.450000000000003,-0.3796580447172293,0.08417360806663744,-0.2209557211749233
1745337712.0356283,0.6771,0.015616,0.0915,-26.250000000000004,-3.2900000000000005,-29.400000000000002,-0.3796580447172293,0.08417360806663744,-0.2209557211749233
1745337712.0404377,0.6810039999999999,0.023667999999999998,0.086132,-25.725,-5.11,-28.315,-0.3796580447172293,0.08417360806663744,-0.2209557211749233
1745337712.0482576,0.69174,0.02318,0.084424,-25.340000000000003,-6.790000000000001,-27.125000000000004,-0.3796580447172293,0.08417360806663744,-0.2209557211749233
1745337712.051714,0.701012,0.022203999999999998,0.08295999999999999,-25.060000000000002,-8.05,-25.76,-0.3796580447172293,0.08417360806663744,-0.2209557211749233
1745337712.0575514,0.707356,0.020739999999999998,0.076128,-24.815,-9.24,-24.815,-0.3796580447172293,0.08417360806663744,-0.2209557211749233
1745337712.0621512,0.742736,0.0046359999999999995,0.077348,-24.395000000000003,-10.010000000000002,-23.835,-0.3796580447172293,0.08417360806663744,-0.2209557211749233
1745337712.067047,0.767868,0.017568,0.075396,-24.01,-9.695,-23.240000000000002,-0.3796580447172293,0.08417360806663744,-0.2209557211749233
1745337712.071981,0.74908,0.033916,0.09516,-23.660000000000004,-9.030000000000001,-22.715000000000003,-0.3796580447172293,0.08417360806663744,-0.2209557211749233
1745337712.076853,0.7795799999999999,0.033428,0.079544,-23.17,-9.975000000000001,-18.62,-0.3796580447172293,0.08417360806663744,-0.2209557211749233
1745337712.081648,0.7671359999999999,0.018056,0.076128,-22.715000000000003,-9.205,-17.815,-0.3796580447172293,0.08417360806663744,-0.2209557211749233
1745337712.086566,0.760304,0.021716,0.086132,-21.595000000000002,-9.590000000000002,-16.380000000000003,-0.3796580447172293,0.08417360806663744,-0.2209557211749233
1745337712.0914357,0.801052,0.026108,0.077836,-21.105,-9.205,-14.945000000000002,-0.3796580447172293,0.08417360806663744,-0.2209557211749233
1745337712.0975661,0.755668,0.032208,0.075396,-20.580000000000002,-7.945000000000001,-13.825000000000001,-0.3796580447172293,0.08417360806663744,-0.2209557211749233
1745337712.1033306,0.811056,0.02928,0.07808,-20.195,-7.525,-12.250000000000002,-0.3796580447172293,0.08417360806663744,-0.2209557211749233
1745337712.1069279,0.80764,0.022935999999999998,0.069784,-19.775000000000002,-7.07,-10.885000000000002,-0.3796580447172293,0.08417360806663744,-0.2209557211749233
1745337712.111892,0.820328,0.036356,0.065636,-19.215000000000003,-6.965000000000001,-10.045000000000002,-0.3796580447172293,0.08417360806663744,-0.2209557211749233
1745337712.1168354,0.830332,0.030012,0.059536,-18.76,-6.335000000000001,-8.505,-0.3796580447172293,0.08417360806663744,-0.2209557211749233
1745337712.1216252,0.82594,0.02684,0.05124,-18.235000000000003,-5.670000000000001,-7.525,-0.3796580447172293,0.08417360806663744,-0.2209557211749233
1745337712.1264987,0.822036,0.029036,0.050508,-17.605,-5.11,-6.755000000000001,-0.3796580447172293,0.08417360806663744,-0.2209557211749233
1745337712.1313524,0.830576,0.03294,0.04392,-17.01,-4.585000000000001,-6.055000000000001,-0.3796580447172293,0.08417360806663744,-0.2209557211749233
1745337712.1372914,0.839604,0.034648,0.044896,-16.275000000000002,-4.025,-5.460000000000001,-0.3796580447172293,0.08417360806663744,-0.2209557211749233
1745337712.1417453,0.8498519999999999,0.034648,0.046604,-15.47,-3.2550000000000003,-4.865,-0.3796580447172293,0.08417360806663744,-0.2209557211749233
1745337712.1464524,0.867176,0.036356,0.05124,-14.700000000000001,-2.4850000000000003,-4.585000000000001,-0.3796580447172293,0.08417360806663744,-0.2209557211749233
1745337712.1514194,0.895724,0.034648,0.057828,-13.790000000000001,-1.7500000000000002,-4.305000000000001,-0.3796580447172293,0.08417360806663744,-0.2209557211749233
1745337712.1571157,0.915976,0.038064,0.122488,-11.935,0.6300000000000001,-4.130000000000001,-0.3796580447172293,0.08417360806663744,-0.2209557211749233
1745337712.1611285,0.926956,0.04026,0.068564,-11.935,1.6800000000000002,-4.41,-0.3796580447172293,0.08417360806663744,-0.2209557211749233
1745337712.1659622,0.934276,0.04514,0.071492,-9.625000000000002,2.6250000000000004,-4.550000000000001,-0.3796580447172293,0.08417360806663744,-0.2209557211749233
1745337712.170835,0.93818,0.046848,0.074908,-8.4,3.7450000000000006,-4.795000000000001,-0.3796580447172293,0.08417360806663744,-0.2209557211749233
1745337712.1758533,0.9484279999999999,0.050752,0.0793,-7.105,4.69,-5.11,-0.3796580447172293,0.08417360806663744,-0.2209557211749233
1745337712.1818845,0.989908,0.067344,0.092476,-5.775,5.53,-5.390000000000001,-0.3796580447172293,0.08417360806663744,-0.2209557211749233
1745337712.1863506,1.009184,0.078812,0.099064,-4.48,6.370000000000001,-5.670000000000001,-0.4033318719859711,0.06400701446733889,-0.1863217886891714
1745337712.1912782,1.024068,0.08418,0.10931199999999999,-3.2900000000000005,7.000000000000001,-6.16,-0.4033318719859711,0.06400701446733889,-0.1863217886891714
1745337712.1961522,1.029924,0.09028,0.12078,-2.0650000000000004,7.945000000000001,-5.845000000000001,-0.4033318719859711,0.06400701446733889,-0.1863217886891714
1745337712.2010663,1.033584,0.09516,0.125904,-0.9450000000000001,8.05,-6.125000000000001,-0.4033318719859711,0.06400701446733889,-0.1863217886891714
1745337712.2088022,1.051152,0.102724,0.136152,0.24500000000000002,7.945000000000001,-6.0200000000000005,-0.4033318719859711,0.06400701446733889,-0.1863217886891714
1745337712.212579,1.063108,0.10931199999999999,0.146156,1.4700000000000002,7.525,-5.355,-0.4033318719859711,0.06400701446733889,-0.1863217886891714
1745337712.21755,1.072624,0.112728,0.152256,3.8850000000000002,6.930000000000001,-5.32,-0.4033318719859711,0.06400701446733889,-0.1863217886891714
1745337712.2242515,1.089948,0.125416,0.176168,5.040000000000001,6.370000000000001,-4.655,-0.4033318719859711,0.06400701446733889,-0.1863217886891714
1745337712.228826,1.099952,0.1281,0.18812399999999999,6.090000000000001,5.775,-3.9550000000000005,-0.4033318719859711,0.06400701446733889,-0.1863217886891714
1745337712.2337136,1.10898,0.124928,0.193248,7.07,4.760000000000001,-3.3950000000000005,-0.4033318719859711,0.06400701446733889,-0.1863217886891714
1745337712.2386498,1.131184,0.11809599999999999,0.20349599999999998,8.120000000000001,4.2,-2.7300000000000004,-0.4033318719859711,0.06400701446733889,-0.1863217886891714
1745337712.2435448,1.143872,0.131272,0.194712,9.065000000000001,3.3600000000000003,-2.31,-0.4033318719859711,0.06400701446733889,-0.1863217886891714
1745337712.24837,1.144604,0.10174799999999999,0.208864,9.625000000000002,2.7300000000000004,-1.4700000000000002,-0.4033318719859711,0.06400701446733889,-0.1863217886891714
1745337712.2532542,1.15412,0.088328,0.210572,10.535,1.3650000000000002,-1.05,-0.4033318719859711,0.06400701446733889,-0.1863217886891714
1745337712.2581174,1.18096,0.1159,0.203008,11.270000000000001,0.31500000000000006,-1.5050000000000001,-0.4033318719859711,0.06400701446733889,-0.1863217886891714
1745337712.2646956,1.165344,0.141764,0.229116,12.670000000000002,-1.995,-0.35000000000000003,-0.4033318719859711,0.06400701446733889,-0.1863217886891714
1745337712.268928,1.136552,0.145424,0.217648,13.510000000000002,-3.6750000000000003,-0.665,-0.4033318719859711,0.06400701446733889,-0.1863217886891714
1745337712.2737556,1.14802,0.13908,0.205204,14.280000000000001,-5.005000000000001,-1.2950000000000002,-0.4033318719859711,0.06400701446733889,-0.1863217886891714
1745337712.2786968,1.141432,0.13663999999999998,0.200568,15.365000000000002,-6.6850000000000005,-2.0300000000000002,-0.4033318719859711,0.06400701446733889,-0.1863217886891714
1745337712.2835934,1.140212,0.149816,0.19519999999999998,16.485000000000003,-8.260000000000002,-3.1500000000000004,-0.4033318719859711,0.06400701446733889,-0.1863217886891714
1745337712.2883925,1.079212,0.147864,0.20374,17.675,-10.360000000000001,-3.7450000000000006,-0.4033318719859711,0.06400701446733889,-0.1863217886891714
1745337712.2932825,1.080676,0.148108,0.196176,19.180000000000003,-13.755,-4.2700000000000005,-0.4033318719859711,0.06400701446733889,-0.1863217886891714
1745337712.2981448,1.096292,0.150304,0.169092,20.545,-16.555000000000003,-4.9,-0.4033318719859711,0.06400701446733889,-0.1863217886891714
1745337712.3037345,1.098,0.14762,0.180804,21.945000000000004,-17.885,-5.565,-0.4033318719859711,0.06400701446733889,-0.1863217886891714
1745337712.3082972,1.1204479999999999,0.144204,0.203008,23.415000000000003,-19.705000000000002,-5.74,-0.4033318719859711,0.06400701446733889,-0.1863217886891714
1745337712.315969,1.159244,0.12688,0.18544,24.745,-21.245,-5.635000000000001,-0.4033318719859711,0.06400701446733889,-0.1863217886891714
1745337712.3196702,1.1843759999999999,0.131028,0.212524,25.935000000000002,-20.860000000000003,-5.635000000000001,-0.4033318719859711,0.06400701446733889,-0.1863217886891714
1745337712.3245444,1.195844,0.12224399999999999,0.225212,27.37,-20.685000000000002,-5.635000000000001,-0.4033318719859711,0.06400701446733889,-0.1863217886891714
1745337712.3295813,1.262944,0.15006,0.194712,28.910000000000004,-16.625,-5.53,-0.4033318719859711,0.06400701446733889,-0.1863217886891714
1745337712.3358192,1.400072,0.166896,0.24522,31.605000000000004,-10.325000000000001,-9.135000000000002,-0.4033318719859711,0.06400701446733889,-0.1863217886891714
1745337712.3404157,1.45546,0.155428,0.20618,32.795,-6.300000000000001,-9.24,-0.4033318719859711,0.06400701446733889,-0.1863217886891714
1745337712.3452423,1.415932,0.161528,0.20252,32.935,0.28,-9.38,-0.4033318719859711,0.06400701446733889,-0.1863217886891714
1745337712.3501267,1.303204,0.164212,0.29036,33.075,6.44,-8.575000000000001,-0.4033318719859711,0.06400701446733889,-0.1863217886891714
1745337712.354999,1.318576,0.195688,0.281088,33.705000000000005,7.105,-7.3500000000000005,-0.4033318719859711,0.06400701446733889,-0.1863217886891714
1745337712.3605227,1.42008,0.189832,0.276208,33.705000000000005,9.520000000000001,-5.845000000000001,-0.4033318719859711,0.06400701446733889,-0.1863217886891714
1745337712.3658848,1.429108,0.238876,0.264252,33.005,13.685,-5.670000000000001,-0.4033318719859711,0.06400701446733889,-0.1863217886891714
1745337712.371486,1.320528,0.200324,0.291336,31.570000000000004,20.685000000000002,-5.32,-0.4033318719859711,0.06400701446733889,-0.1863217886891714
1745337712.3754365,1.247328,0.207888,0.34526,30.485000000000003,20.685000000000002,-5.32,-0.4033318719859711,0.06400701446733889,-0.1863217886891714
1745337712.3803434,1.22854,0.20349599999999998,0.321104,29.540000000000003,21.035000000000004,-4.760000000000001,-0.4033318719859711,0.06400701446733889,-0.1863217886891714
1745337712.3852012,1.1843759999999999,0.2501,0.349896,28.245,21.910000000000004,-3.9550000000000005,-0.39017974572555897,0.03244191144234985,-0.18763700131521263
1745337712.391113,1.155096,0.24888,0.331596,25.095000000000002,21.630000000000003,-0.07,-0.39017974572555897,0.03244191144234985,-0.18763700131521263
1745337712.395274,1.1253279999999999,0.244732,0.31476,23.17,22.12,1.1900000000000002,-0.39017974572555897,0.03244191144234985,-0.18763700131521263
1745337712.4000537,1.124596,0.24766,0.330864,20.930000000000003,21.840000000000003,2.345,-0.39017974572555897,0.03244191144234985,-0.18763700131521263
1745337712.4050257,1.03578,0.36356,0.446032,18.130000000000003,19.880000000000003,5.215000000000001,-0.39017974572555897,0.03244191144234985,-0.18763700131521263
1745337712.4099288,1.091656,0.332328,0.428464,14.385000000000002,16.87,6.580000000000001,-0.39017974572555897,0.03244191144234985,-0.18763700131521263
1745337712.414744,1.0870199999999999,0.334768,0.405284,10.080000000000002,15.890000000000002,7.525,-0.39017974572555897,0.03244191144234985,-0.18763700131521263
1745337712.4196424,1.11996,0.390644,0.375028,6.16,14.21,9.940000000000001,-0.39017974572555897,0.03244191144234985,-0.18763700131521263
1745337712.425232,1.111176,0.2318,0.42797599999999997,2.6950000000000003,14.175,12.46,-0.39017974572555897,0.03244191144234985,-0.18763700131521263
1745337712.4297428,1.170712,0.27327999999999997,0.343308,-0.21000000000000002,11.760000000000002,11.97,-0.39017974572555897,0.03244191144234985,-0.18763700131521263
1745337712.4357917,1.148996,0.271572,0.383324,-2.66,13.685,12.110000000000001,-0.39017974572555897,0.03244191144234985,-0.18763700131521263
1745337712.440569,1.151924,0.20691199999999998,0.366244,-4.9,13.72,13.265,-0.39017974572555897,0.03244191144234985,-0.18763700131521263
1745337712.4454837,1.308572,-1.0614,0.6317159999999999,-1.7500000000000002,22.925,19.145000000000003,-0.39017974572555897,0.03244191144234985,-0.18763700131521263
1745337712.4504094,1.3273599999999999,0.187392,0.411872,20.930000000000003,25.375000000000004,-1.5050000000000001,-0.39017974572555897,0.03244191144234985,-0.18763700131521263
1745337712.455289,0.776896,0.088084,0.570228,19.040000000000003,29.400000000000002,5.075,-0.39017974572555897,0.03244191144234985,-0.18763700131521263
1745337712.4601455,0.851316,0.307684,0.71858,20.965000000000003,30.380000000000003,14.175,-0.39017974572555897,0.03244191144234985,-0.18763700131521263
1745337712.4649951,1.28466,0.176168,0.456036,23.17,18.095000000000002,15.330000000000002,-0.39017974572555897,0.03244191144234985,-0.18763700131521263
1745337712.469926,0.811056,0.446764,0.44164,20.37,16.520000000000003,20.475,-0.39017974572555897,0.03244191144234985,-0.18763700131521263
1745337712.4783368,0.878644,0.34038,0.338184,19.53,8.610000000000001,15.120000000000001,-0.39017974572555897,0.03244191144234985,-0.18763700131521263
1745337712.4824479,0.915244,0.466528,0.355996,18.69,19.250000000000004,16.1,-0.39017974572555897,0.03244191144234985,-0.18763700131521263
1745337712.4872682,1.048468,0.293532,0.33427999999999997,18.935000000000002,20.615000000000002,16.94,-0.39017974572555897,0.03244191144234985,-0.18763700131521263
1745337712.4921608,0.9435479999999999,0.445788,0.21472,19.53,19.950000000000003,13.895000000000001,-0.39017974572555897,0.03244191144234985,-0.18763700131521263
1745337712.4970338,0.771284,0.19641999999999998,0.240096,20.090000000000003,21.455000000000002,14.700000000000001,-0.39017974572555897,0.03244191144234985,-0.18763700131521263
1745337712.5028157,0.853268,0.174948,0.35648399999999997,21.630000000000003,13.195000000000002,14.700000000000001,-0.39017974572555897,0.03244191144234985,-0.18763700131521263
1745337712.507134,0.8854759999999999,0.192516,0.27938,22.225,13.125000000000002,16.345000000000002,-0.39017974572555897,0.03244191144234985,-0.18763700131521263
1745337712.5118787,0.8374079999999999,0.127124,0.24448799999999998,21.28,10.885000000000002,16.975,-0.39017974572555897,0.03244191144234985,-0.18763700131521263
1745337712.5168452,0.764208,0.071492,0.16006399999999998,21.21,10.360000000000001,16.66,-0.39017974572555897,0.03244191144234985,-0.18763700131521263
1745337712.5217557,0.67588,0.013176,0.22326,21.35,8.015,16.380000000000003,-0.39017974572555897,0.03244191144234985,-0.18763700131521263
1745337712.5266027,0.651236,0.07124799999999999,0.15006,21.14,3.0100000000000002,17.57,-0.39017974572555897,0.03244191144234985,-0.18763700131521263
1745337712.5322227,0.6451359999999999,0.07198,0.136152,20.580000000000002,0.6300000000000001,19.565,-0.39017974572555897,0.03244191144234985,-0.18763700131521263
1745337712.5363338,0.564128,0.026352,0.166408,20.020000000000003,-1.61,21.385,-0.39017974572555897,0.03244191144234985,-0.18763700131521263
1745337712.541709,0.6168319999999999,0.040504,0.149328,19.845000000000002,-6.615,21.560000000000002,-0.39017974572555897,0.03244191144234985,-0.18763700131521263
1745337712.5476692,0.688812,0.051972,0.113216,19.6,-9.8,21.700000000000003,-0.39017974572555897,0.03244191144234985,-0.18763700131521263
1745337712.5523224,0.7105279999999999,0.049288,0.101992,19.145000000000003,-10.71,21.560000000000002,-0.39017974572555897,0.03244191144234985,-0.18763700131521263
1745337712.5572705,0.684176,0.051972,0.11712,18.935000000000002,-10.99,21.525000000000002,-0.39017974572555897,0.03244191144234985,-0.18763700131521263
1745337712.5621712,0.691496,0.049532,0.140788,18.970000000000002,-11.935,21.805000000000003,-0.39017974572555897,0.03244191144234985,-0.18763700131521263
1745337712.5670238,0.732,0.054168,0.10467599999999999,19.040000000000003,-13.650000000000002,21.700000000000003,-0.39017974572555897,0.03244191144234985,-0.18763700131521263
1745337712.5718744,0.717604,0.051972,0.09589199999999999,18.76,-12.950000000000001,21.455000000000002,-0.39017974572555897,0.03244191144234985,-0.18763700131521263
1745337712.576758,0.6871039999999999,0.050263999999999996,0.112484,18.76,-12.250000000000002,21.560000000000002,-0.39017974572555897,0.03244191144234985,-0.18763700131521263
1745337712.587958,0.695644,0.054168,0.113216,18.76,-13.790000000000001,21.805000000000003,-0.34546251644015785,0.03770276194651469,-0.20648838228846997
1745337712.5935664,0.70272,0.040504,0.093696,18.445,-13.020000000000001,22.750000000000004,-0.34546251644015785,0.03770276194651469,-0.20648838228846997
1745337712.5970263,0.71858,0.04514,0.08906,18.375,-13.335,22.505000000000003,-0.34546251644015785,0.03770276194651469,-0.20648838228846997
1745337712.60198,0.72834,0.053436,0.07808,18.060000000000002,-13.335,22.26,-0.34546251644015785,0.03770276194651469,-0.20648838228846997
1745337712.6068685,0.719312,0.049532,0.07417599999999999,17.605,-12.46,22.680000000000003,-0.34546251644015785,0.03770276194651469,-0.20648838228846997
1745337712.6116655,0.70882,0.043432,0.077836,17.360000000000003,-12.145000000000001,22.750000000000004,-0.34546251644015785,0.03770276194651469,-0.20648838228846997
1745337712.6165555,0.7290719999999999,0.04514,0.07198,17.150000000000002,-12.180000000000001,22.785000000000004,-0.34546251644015785,0.03770276194651469,-0.20648838228846997
1745337712.6214242,0.745176,0.051972,0.056608,17.01,-11.830000000000002,22.855,-0.34546251644015785,0.03770276194651469,-0.20648838228846997
1745337712.6271975,0.742248,0.051484,0.04758,16.8,-10.815000000000001,23.135,-0.34546251644015785,0.03770276194651469,-0.20648838228846997
1745337712.631414,0.729316,0.05002,0.052704,16.485000000000003,-9.625000000000002,23.03,-0.34546251644015785,0.03770276194651469,-0.20648838228846997
1745337712.6362143,0.74176,0.05368,0.05002,16.1,-8.96,22.540000000000003,-0.34546251644015785,0.03770276194651469,-0.20648838228846997
1745337712.641072,0.758108,0.066124,0.040748,15.715000000000002,-8.120000000000001,22.26,-0.34546251644015785,0.03770276194651469,-0.20648838228846997
1745337712.6467342,0.76494,0.064416,0.034892,15.120000000000001,-6.8950000000000005,22.155,-0.34546251644015785,0.03770276194651469,-0.20648838228846997
1745337712.6508644,0.751764,0.07417599999999999,0.040748,14.420000000000002,-5.355,22.05,-0.34546251644015785,0.03770276194651469,-0.20648838228846997
1745337712.656964,0.769332,0.057828,0.044407999999999996,14.000000000000002,-3.9200000000000004,21.035000000000004,-0.34546251644015785,0.03770276194651469,-0.20648838228846997
1745337712.6612957,0.7807999999999999,0.082716,0.027327999999999998,13.440000000000001,-2.24,20.825000000000003,-0.34546251644015785,0.03770276194651469,-0.20648838228846997
1745337712.6660829,0.790072,0.081496,0.039284,12.635000000000002,-1.0850000000000002,20.615000000000002,-0.34546251644015785,0.03770276194651469,-0.20648838228846997
1745337712.671035,0.774944,0.091988,0.046604,10.850000000000001,-0.35000000000000003,20.37,-0.34546251644015785,0.03770276194651469,-0.20648838228846997
1745337712.6759288,0.788608,0.087108,0.047092,9.940000000000001,0.21000000000000002,19.880000000000003,-0.34546251644015785,0.03770276194651469,-0.20648838228846997
1745337712.680748,0.802516,0.10052799999999999,0.044407999999999996,8.995000000000001,1.225,19.740000000000002,-0.34546251644015785,0.03770276194651469,-0.20648838228846997
1745337712.6856596,0.817888,0.10126,0.037087999999999996,8.085,2.205,19.32,-0.34546251644015785,0.03770276194651469,-0.20648838228846997
1745337712.690518,0.8300879999999999,0.091012,0.051484,7.210000000000001,3.7800000000000002,18.865000000000002,-0.34546251644015785,0.03770276194651469,-0.20648838228846997
1745337712.6987572,0.857416,0.091012,0.035623999999999996,6.545000000000001,4.165,18.41,-0.34546251644015785,0.03770276194651469,-0.20648838228846997
1745337712.7026472,0.874984,0.087596,0.022935999999999998,5.95,5.215000000000001,18.375,-0.34546251644015785,0.03770276194651469,-0.20648838228846997
1745337712.7074795,0.881572,0.072712,0.038064,5.495,7.035000000000001,18.270000000000003,-0.34546251644015785,0.03770276194651469,-0.20648838228846997
1745337712.7124557,0.891576,0.08588799999999999,0.040748,5.180000000000001,7.665000000000001,17.360000000000003,-0.34546251644015785,0.03770276194651469,-0.20648838228846997
1745337712.7173488,0.912316,0.088084,0.041236,4.7250000000000005,17.465000000000003,16.8,-0.34546251644015785,0.03770276194651469,-0.20648838228846997
1745337712.7221434,0.93696,0.088328,0.042943999999999996,4.375,10.780000000000001,15.995000000000001,-0.34546251644015785,0.03770276194651469,-0.20648838228846997
1745337712.727027,0.94428,0.091256,0.048312,3.2900000000000005,11.9,15.260000000000002,-0.34546251644015785,0.03770276194651469,-0.20648838228846997
1745337712.7318976,0.9545279999999999,0.090524,0.064904,2.765,12.32,14.14,-0.34546251644015785,0.03770276194651469,-0.20648838228846997
1745337712.7377338,0.979416,0.097844,0.07710399999999999,2.0650000000000004,13.580000000000002,13.055000000000001,-0.34546251644015785,0.03770276194651469,-0.20648838228846997
1745337712.7419837,0.994788,0.10126,0.099308,1.4000000000000001,14.105000000000002,11.97,-0.34546251644015785,0.03770276194651469,-0.20648838228846997
1745337712.7466786,1.010404,0.10052799999999999,0.105896,0.77,14.070000000000002,11.13,-0.34546251644015785,0.03770276194651469,-0.20648838228846997
1745337712.7537396,1.01016,0.095648,0.122,0.10500000000000001,14.245000000000001,10.360000000000001,-0.34546251644015785,0.03770276194651469,-0.20648838228846997
1745337712.7573206,1.01382,0.094184,0.142008,-0.6300000000000001,14.21,9.8,-0.34546251644015785,0.03770276194651469,-0.20648838228846997
1745337712.7621531,1.028704,0.0915,0.149084,-1.225,13.160000000000002,8.540000000000001,-0.34546251644015785,0.03770276194651469,-0.20648838228846997
1745337712.7670422,1.04066,0.090524,0.158112,-1.7500000000000002,12.565000000000001,8.05,-0.34546251644015785,0.03770276194651469,-0.20648838228846997
1745337712.77188,1.05042,0.08295999999999999,0.169092,-2.24,11.830000000000002,7.420000000000001,-0.34546251644015785,0.03770276194651469,-0.20648838228846997
1745337712.7771459,1.061644,0.07710399999999999,0.180316,-2.6950000000000003,10.920000000000002,6.6850000000000005,-0.34546251644015785,0.03770276194651469,-0.20648838228846997
1745337712.7830591,1.073844,0.068564,0.187636,-3.325,8.855,4.62,-0.313020604997808,0.03857957036387549,-0.22314774221832528
1745337712.787897,1.094828,0.06222,0.19886,-3.535,8.225000000000001,3.7800000000000002,-0.313020604997808,0.03857957036387549,-0.22314774221832528
1745337712.7928212,1.109712,0.06222,0.206668,-3.7100000000000004,7.5600000000000005,2.45,-0.313020604997808,0.03857957036387549,-0.22314774221832528
1745337712.7977116,1.120936,0.056852,0.23033599999999999,-3.8850000000000002,6.370000000000001,1.225,-0.313020604997808,0.03857957036387549,-0.22314774221832528
1745337712.805524,1.16998,0.056119999999999996,0.235948,-4.025,5.53,0.14,-0.313020604997808,0.03857957036387549,-0.22314774221832528
1745337712.8090832,1.176324,0.05124,0.240584,-4.165,5.180000000000001,-0.9450000000000001,-0.313020604997808,0.03857957036387549,-0.22314774221832528
1745337712.8139374,1.1794959999999999,0.047092,0.244976,-4.340000000000001,4.62,-2.24,-0.313020604997808,0.03857957036387549,-0.22314774221832528
1745337712.8192344,1.186328,0.043188,0.240584,-4.550000000000001,3.7800000000000002,-3.3950000000000005,-0.313020604997808,0.03857957036387549,-0.22314774221832528
1745337712.8257945,1.189988,0.046116,0.23424,-5.215000000000001,2.765,-4.7250000000000005,-0.313020604997808,0.03857957036387549,-0.22314774221832528
1745337712.830534,1.183644,0.041236,0.233508,-5.53,2.0650000000000004,-5.040000000000001,-0.313020604997808,0.03857957036387549,-0.22314774221832528
1745337712.8353786,1.1770559999999999,0.037332,0.2318,-6.125000000000001,0.9800000000000001,-4.865,-0.313020604997808,0.03857957036387549,-0.22314774221832528
1745337712.8402648,1.187548,0.032695999999999996,0.232044,-6.8950000000000005,0.14,-4.340000000000001,-0.313020604997808,0.03857957036387549,-0.22314774221832528
1745337712.8451326,1.20536,0.024399999999999998,0.238388,-7.630000000000001,-0.31500000000000006,-3.4650000000000003,-0.313020604997808,0.03857957036387549,-0.22314774221832528
1745337712.850843,1.2300039999999999,0.012199999999999999,0.248148,-8.47,-0.42000000000000004,-2.2750000000000004,-0.313020604997808,0.03857957036387549,-0.22314774221832528
1745337712.8551857,1.2634319999999999,0.000976,0.259372,-9.345,0.35000000000000003,-0.9100000000000001,-0.313020604997808,0.03857957036387549,-0.22314774221832528
1745337712.8608294,1.301984,-0.001952,0.27938,-10.325000000000001,1.715,0.42000000000000004,-0.313020604997808,0.03857957036387549,-0.22314774221832528
1745337712.865018,1.341756,-0.000976,0.2928,-11.655000000000001,4.2700000000000005,2.205,-0.313020604997808,0.03857957036387549,-0.22314774221832528
1745337712.8698764,1.3664,-0.005612,0.31476,-13.090000000000002,7.420000000000001,3.5700000000000003,-0.313020604997808,0.03857957036387549,-0.22314774221832528
1745337712.8746886,1.390556,0.00366,0.34526,-14.63,11.270000000000001,5.425000000000001,-0.313020604997808,0.03857957036387549,-0.22314774221832528
1745337712.879563,1.409344,-0.005856,0.360144,-16.205000000000002,14.840000000000002,7.175000000000001,-0.313020604997808,0.03857957036387549,-0.22314774221832528
1745337712.884446,1.428864,-0.016836,0.365268,-17.605,19.110000000000003,8.925,-0.313020604997808,0.03857957036387549,-0.22314774221832528
1745337712.889738,1.45546,-0.017079999999999998,0.38552,-18.655,23.625000000000004,9.975000000000001,-0.313020604997808,0.03857957036387549,-0.22314774221832528
1745337712.8955088,1.469368,-0.023912,0.386496,-19.915000000000003,33.285000000000004,10.920000000000002,-0.313020604997808,0.03857957036387549,-0.22314774221832528
1745337712.9001343,1.472296,-0.02318,0.40138,-20.195,37.835,9.905000000000001,-0.313020604997808,0.03857957036387549,-0.22314774221832528
1745337712.9050672,1.4518,-0.029768,0.40138,-20.335,41.720000000000006,8.05,-0.313020604997808,0.03857957036387549,-0.22314774221832528
1745337712.9129229,1.409832,-0.028059999999999998,0.390644,-20.44,44.660000000000004,5.8100000000000005,-0.313020604997808,0.03857957036387549,-0.22314774221832528
1745337712.91607,1.2890519999999999,-0.029523999999999998,0.387228,-20.475,46.620000000000005,3.6400000000000006,-0.313020604997808,0.03857957036387549,-0.22314774221832528
1745337712.9209392,1.2165839999999999,-0.027816,0.378444,-20.44,46.970000000000006,1.33,-0.313020604997808,0.03857957036387549,-0.22314774221832528
1745337712.925807,1.1407,-0.038064,0.35526399999999997,-20.265,45.36000000000001,-0.17500000000000002,-0.313020604997808,0.03857957036387549,-0.22314774221832528
1745337712.931028,1.06872,-0.045871999999999996,0.336964,-19.985000000000003,42.77,-1.225,-0.313020604997808,0.03857957036387549,-0.22314774221832528
1745337712.9368796,1.01138,-0.033916,0.317444,-19.705000000000002,38.85,-2.0300000000000002,-0.313020604997808,0.03857957036387549,-0.22314774221832528
1745337712.941564,0.98332,-0.06709999999999999,0.326716,-19.495,34.230000000000004,-2.7300000000000004,-0.313020604997808,0.03857957036387549,-0.22314774221832528
1745337712.9465408,0.9694119999999999,-0.076616,0.316224,-18.970000000000002,24.430000000000003,-3.4650000000000003,-0.313020604997808,0.03857957036387549,-0.22314774221832528
1745337712.9514167,0.9557479999999999,-0.077836,0.326472,-17.605,19.635,-4.130000000000001,-0.313020604997808,0.03857957036387549,-0.22314774221832528
1745337712.9562635,0.960384,-0.070516,0.33989199999999997,-17.255000000000003,14.945000000000002,-4.2700000000000005,-0.313020604997808,0.03857957036387549,-0.22314774221832528
1745337712.9610868,0.9516,-0.060756,0.338672,-17.115000000000002,10.465000000000002,-3.6400000000000006,-0.313020604997808,0.03857957036387549,-0.22314774221832528
1745337712.967823,0.967216,-0.060756,0.366732,-17.01,5.285,-2.7300000000000004,-0.313020604997808,0.03857957036387549,-0.22314774221832528
1745337712.9709575,1.006256,-0.073688,0.372588,-17.255000000000003,1.4700000000000002,-1.33,-0.313020604997808,0.03857957036387549,-0.22314774221832528
1745337712.9768605,1.057496,-0.074908,0.373564,-17.430000000000003,-1.61,-0.7000000000000001,-0.29110039456378783,0.04559403770276195,-0.24813678211310827
1745337712.981121,1.093608,-0.08003199999999999,0.380396,-17.955000000000002,-2.8000000000000003,0.42000000000000004,-0.29110039456378783,0.04559403770276195,-0.24813678211310827
1745337712.9859238,1.120204,-0.084668,0.39894,-18.76,-2.66,1.5050000000000001,-0.29110039456378783,0.04559403770276195,-0.24813678211310827
