Timestamp,Accel X,Accel Y,Accel Z,Gyro X,Gyro Y,Gyro Z,Magneto X,Magneto Y,Magneto Z
1745334316.1042802,1.001437,0.064111,0.10174799999999999,-0.07875000000000001,-0.11375000000000002,0.385,-0.3121894182987431,0.19351066939491376,-0.16807950891552179
1745334316.1099212,0.9995459999999999,0.061426999999999995,0.103395,-0.00875,-0.36750000000000005,0.14875000000000002,-0.3121894182987431,0.19351066939491376,-0.16807950891552179
1745334316.114602,1.000705,0.063196,0.10144299999999999,-0.061250000000000006,-0.28875,0.25375000000000003,-0.3121894182987431,0.19351066939491376,-0.16807950891552179
1745334316.119515,1.002169,0.06222,0.103273,-0.0175,-0.25375000000000003,0.30625,-0.3121894182987431,0.19351066939491376,-0.16807950891552179
1745334316.1243594,1.001437,0.063684,0.103822,-0.026250000000000002,-0.21000000000000002,0.29750000000000004,-0.3121894182987431,0.19351066939491376,-0.16807950891552179
1745334316.1292117,1.001986,0.061549,0.104859,-0.07,-0.1925,0.30625,-0.3121894182987431,0.19351066939491376,-0.16807950891552179
1745334316.134749,1.000827,0.059841,0.102419,-0.08750000000000001,-0.14875000000000002,0.32375000000000004,-0.3121894182987431,0.19351066939491376,-0.16807950891552179
1745334316.1404147,1.001681,0.063989,0.103883,-0.09625,-0.14,0.3325,-0.3121894182987431,0.19351066939491376,-0.16807950891552179
1745334316.144793,0.998814,0.060329,0.103273,-0.10500000000000001,-0.12250000000000001,0.3325,-0.3121894182987431,0.19351066939491376,-0.16807950891552179
1745334316.149647,0.999119,0.060816999999999996,0.10144299999999999,-0.10500000000000001,-0.13125,0.28,-0.3121894182987431,0.19351066939491376,-0.16807950891552179
1745334316.1545181,1.001193,0.062098,0.099796,-0.13125,-0.14,0.35875,-0.3121894182987431,0.19351066939491376,-0.16807950891552179
1745334316.1593628,1.000217,0.063013,0.10144299999999999,-0.11375000000000002,-0.20125,0.29750000000000004,-0.3121894182987431,0.19351066939491376,-0.16807950891552179
1745334316.1642194,0.999302,0.061975999999999996,0.102114,-0.11375000000000002,-0.18375000000000002,0.29750000000000004,-0.3121894182987431,0.19351066939491376,-0.16807950891552179
1745334316.1695936,1.001132,0.060939,0.103212,-0.043750000000000004,-0.21000000000000002,0.35875,-0.3121894182987431,0.19351066939491376,-0.16807950891552179
1745334316.1746066,1.000766,0.060573,0.104127,-0.09625,-0.14875000000000002,0.36750000000000005,-0.3121894182987431,0.19351066939491376,-0.16807950891552179
1745334316.1793716,1.002047,0.062769,0.102236,-0.09625,-0.14875000000000002,0.31500000000000006,-0.3121894182987431,0.19351066939491376,-0.16807950891552179
1745334316.1842968,1.002474,0.062280999999999996,0.10309,-0.07,-0.16625,0.35000000000000003,-0.3121894182987431,0.19351066939491376,-0.16807950891552179
1745334316.1890907,1.00101,0.061793,0.102175,-0.026250000000000002,-0.20125,0.3325,-0.3121894182987431,0.19351066939491376,-0.16807950891552179
1745334316.1939917,1.0004,0.060634,0.102663,-0.09625,-0.16625,0.3325,-0.3121894182987431,0.19351066939491376,-0.16807950891552179
1745334316.1991472,0.999973,0.062342,0.10205299999999999,-0.07,-0.15750000000000003,0.32375000000000004,-0.3121894182987431,0.19351066939491376,-0.16807950891552179
1745334316.2045577,1.000705,0.061975999999999996,0.102358,-0.08750000000000001,-0.1925,0.29750000000000004,-0.3121894182987431,0.19351066939491376,-0.16559485530546625
1745334316.2089496,1.000461,0.061854,0.103334,-0.09625,-0.42000000000000004,-0.052500000000000005,-0.31248173048816136,0.19409529377375037,-0.16559485530546625
1745334316.2136476,1.00162,0.061305,0.103029,-0.09625,-0.08750000000000001,0.5075000000000001,-0.31248173048816136,0.19409529377375037,-0.16559485530546625
1745334316.2186365,1.001498,0.062891,0.102968,-0.043750000000000004,-0.14875000000000002,0.34125000000000005,-0.31248173048816136,0.19409529377375037,-0.16559485530546625
1745334316.2234282,1.000095,0.061,0.102785,-0.061250000000000006,-0.15750000000000003,0.31500000000000006,-0.31248173048816136,0.19409529377375037,-0.16559485530546625
1745334316.228311,1.000522,0.061915,0.103273,-0.043750000000000004,-0.12250000000000001,0.37625000000000003,-0.31248173048816136,0.19409529377375037,-0.16559485530546625
1745334316.2331865,1.00162,0.061488,0.102907,-0.11375000000000002,-0.14,0.35875,-0.31248173048816136,0.19409529377375037,-0.16559485530546625
1745334316.238851,0.998387,0.061121999999999996,0.100589,-0.052500000000000005,-0.21000000000000002,0.3325,-0.31248173048816136,0.19409529377375037,-0.16559485530546625
1745334316.2431543,1.002169,0.060634,0.10577399999999999,-0.0175,-0.18375000000000002,0.35875,-0.31248173048816136,0.19409529377375037,-0.16559485530546625
1745334316.2479804,1.006073,0.06508699999999999,0.100955,-0.12250000000000001,-0.27125000000000005,0.29750000000000004,-0.31248173048816136,0.19409529377375037,-0.16559485530546625
1745334316.252885,0.998875,0.056791,0.097783,-0.07875000000000001,-0.12250000000000001,0.36750000000000005,-0.31248173048816136,0.19409529377375037,-0.16559485530546625
1745334316.2577376,0.9995459999999999,0.05978,0.104737,-0.09625,-0.10500000000000001,0.30625,-0.31248173048816136,0.19409529377375037,-0.16559485530546625
1745334316.262599,1.002779,0.071797,0.105042,-0.12250000000000001,-0.23625000000000002,0.18375000000000002,-0.31248173048816136,0.19409529377375037,-0.16559485530546625
1745334316.267682,1.003572,0.06539199999999999,0.099369,-0.052500000000000005,-0.14875000000000002,0.36750000000000005,-0.31248173048816136,0.19409529377375037,-0.16559485530546625
1745334316.2729826,0.997167,0.053741,0.101992,0.0,-0.10500000000000001,0.35000000000000003,-0.31248173048816136,0.19409529377375037,-0.16559485530546625
1745334316.2776818,1.00406,0.061488,0.108031,0.0175,-0.27125000000000005,0.2625,-0.31248173048816136,0.19409529377375037,-0.16559485530546625
1745334316.282495,1.002901,0.06466,0.097539,-0.10500000000000001,-0.07,0.35875,-0.31248173048816136,0.19409529377375037,-0.16559485530546625
1745334316.2873406,1.000278,0.061366,0.101809,-0.14,-0.16625,0.31500000000000006,-0.31248173048816136,0.19409529377375037,-0.16559485530546625
1745334316.2922225,1.001681,0.063074,0.105896,-0.07,-0.25375000000000003,0.39375000000000004,-0.31248173048816136,0.19409529377375037,-0.16559485530546625
1745334316.2970793,1.004487,0.062280999999999996,0.10553,0.00875,-0.035,0.35000000000000003,-0.31248173048816136,0.19409529377375037,-0.16559485530546625
1745334316.311427,1.000278,0.066734,0.102419,-0.061250000000000006,0.07875000000000001,0.6475000000000001,-0.31248173048816136,0.19409529377375037,-0.16559485530546625
1745334316.3146687,1.003633,0.059962999999999995,0.10187,0.026250000000000002,-0.15750000000000003,0.42875,-0.31248173048816136,0.19409529377375037,-0.16559485530546625
1745334316.3195617,0.9995459999999999,0.063623,0.103578,-0.07875000000000001,-0.09625,0.30625,-0.31248173048816136,0.19409529377375037,-0.16559485530546625
1745334316.3244154,0.998265,0.064843,0.09991799999999999,0.0175,-0.39375000000000004,0.25375000000000003,-0.31248173048816136,0.19409529377375037,-0.16559485530546625
1745334316.3292813,1.001681,0.064111,0.10492,-0.026250000000000002,-0.30625,0.29750000000000004,-0.31248173048816136,0.19409529377375037,-0.16559485530546625
1745334316.3344848,1.006195,0.062342,0.101199,-0.052500000000000005,-0.1925,0.4025,-0.31248173048816136,0.19409529377375037,-0.16559485530546625
1745334316.3412411,0.993385,0.065331,0.105835,-0.09625,-0.0175,0.23625000000000002,-0.31248173048816136,0.19409529377375037,-0.16559485530546625
1745334316.3459744,1.001803,0.065209,0.10205299999999999,-0.07,-0.28,0.35000000000000003,-0.31248173048816136,0.19409529377375037,-0.16559485530546625
1745334316.3508835,1.00406,0.058193999999999996,0.09729499999999999,-0.08750000000000001,-0.29750000000000004,0.28,-0.31248173048816136,0.19409529377375037,-0.16559485530546625
1745334316.3556805,0.998875,0.063013,0.105042,-0.07875000000000001,-0.061250000000000006,0.32375000000000004,-0.31248173048816136,0.19409529377375037,-0.16559485530546625
1745334316.3605757,0.999607,0.064538,0.10065,-0.09625,-0.22750000000000004,0.37625000000000003,-0.31248173048816136,0.19409529377375037,-0.16559485530546625
1745334316.3667948,1.00223,0.061488,0.10083299999999999,-0.052500000000000005,-0.07,0.43750000000000006,-0.31248173048816136,0.19409529377375037,-0.16559485530546625
1745334316.3721457,1.00406,0.064416,0.106018,-0.043750000000000004,-0.2625,0.34125000000000005,-0.31248173048816136,0.19409529377375037,-0.16559485530546625
1745334316.3763268,1.000522,0.06344,0.097966,-0.035,-0.11375000000000002,0.30625,-0.31248173048816136,0.19409529377375037,-0.16559485530546625
1745334316.3811424,0.995642,0.060024,0.103029,-0.07,-0.31500000000000006,0.30625,-0.31248173048816136,0.19409529377375037,-0.16559485530546625
1745334316.3860593,1.002596,0.064294,0.099735,-0.18375000000000002,-0.2625,0.35875,-0.31248173048816136,0.19409529377375037,-0.16559485530546625
1745334316.390901,1.007415,0.062525,0.097051,-0.035,-0.18375000000000002,0.34125000000000005,-0.31248173048816136,0.19409529377375037,-0.16559485530546625
1745334316.3957698,0.991372,0.060511999999999996,0.101016,-0.061250000000000006,-0.07875000000000001,0.39375000000000004,-0.31248173048816136,0.19409529377375037,-0.16559485530546625
1745334316.4008424,0.998387,0.068442,0.108031,-0.08750000000000001,-0.21875000000000003,0.24500000000000002,-0.31248173048816136,0.19409529377375037,-0.16559485530546625
1745334316.4065902,1.009916,0.058621,0.098637,-0.043750000000000004,-0.6737500000000001,0.026250000000000002,-0.31365097924583457,0.19000292312189418,-0.1625255773165741
1745334316.4111784,1.002352,0.056608,0.100162,-0.13125,0.07875000000000001,0.5775,-0.31365097924583457,0.19000292312189418,-0.1625255773165741
1745334316.4192228,0.987773,0.062159,0.105286,-0.00875,-0.2625,0.49875,-0.31365097924583457,0.19000292312189418,-0.1625255773165741
1745334316.4225202,0.997167,0.065636,0.103212,-0.00875,-0.2625,0.43750000000000006,-0.31365097924583457,0.19000292312189418,-0.1625255773165741
1745334316.4274015,1.004182,0.06447699999999999,0.09943,-0.09625,-0.27125000000000005,0.23625000000000002,-0.31365097924583457,0.19000292312189418,-0.1625255773165741
1745334316.4323058,1.01077,0.063562,0.104859,-0.061250000000000006,-0.15750000000000003,0.36750000000000005,-0.31365097924583457,0.19000292312189418,-0.1625255773165741
1745334316.4379478,1.001925,0.060816999999999996,0.10797,-0.12250000000000001,0.026250000000000002,0.29750000000000004,-0.31365097924583457,0.19000292312189418,-0.1625255773165741
1745334316.4422255,0.997838,0.100589,0.109068,-0.29750000000000004,-0.07875000000000001,0.20125,-0.31365097924583457,0.19000292312189418,-0.1625255773165741
1745334316.4470425,1.002413,0.102114,0.09589199999999999,-0.7612500000000001,0.043750000000000004,0.5775,-0.31365097924583457,0.19000292312189418,-0.1625255773165741
1745334316.4519608,0.978928,0.090524,0.07417599999999999,-1.1900000000000002,0.00875,0.7875000000000001,-0.31365097924583457,0.19000292312189418,-0.1625255773165741
1745334316.4568062,0.979538,0.093147,0.11547299999999999,-1.6975000000000002,0.23625000000000002,0.3325,-0.31365097924583457,0.19000292312189418,-0.1625255773165741
1745334316.4616873,1.020103,0.139385,0.113216,-2.1612500000000003,-0.6212500000000001,-0.21875000000000003,-0.31365097924583457,0.19000292312189418,-0.1625255773165741
1745334316.4667056,1.004121,0.239608,0.144265,-3.9462500000000005,0.3325,-0.525,-0.31365097924583457,0.19000292312189418,-0.1625255773165741
1745334316.480639,0.967094,0.21307299999999998,0.153049,-9.922500000000001,-0.035,0.9362500000000001,-0.31365097924583457,0.19000292312189418,-0.1625255773165741
1745334316.4840667,1.06811,0.23430099999999998,0.093574,-13.641250000000001,0.48125000000000007,0.39375000000000004,-0.31365097924583457,0.19000292312189418,-0.1625255773165741
1745334316.4888628,1.022177,0.097173,0.16104,-13.46625,2.2925000000000004,-0.31500000000000006,-0.31365097924583457,0.19000292312189418,-0.1625255773165741
1745334316.493739,1.043893,0.056852,0.136823,-12.888750000000002,0.41125000000000006,0.39375000000000004,-0.31365097924583457,0.19000292312189418,-0.1625255773165741
1745334316.4986184,1.0864099999999999,0.046421,0.083143,-12.617500000000001,1.33,0.385,-0.31365097924583457,0.19000292312189418,-0.1625255773165741
1745334316.5043595,0.984906,0.07033299999999999,0.14127599999999998,-12.57375,4.0687500000000005,0.15750000000000003,-0.31365097924583457,0.19000292312189418,-0.1625255773165741
1745334316.5086114,0.906582,-0.034159999999999996,0.143838,-12.232500000000002,1.1375000000000002,-0.5775,-0.31365097924583457,0.19000292312189418,-0.1625255773165741
1745334316.5134425,0.902434,-0.151524,0.044042,-11.06,-3.99,-3.6662500000000002,-0.31365097924583457,0.19000292312189418,-0.1625255773165741
1745334316.5183494,0.945012,-0.176168,0.125416,-10.6225,-3.8850000000000002,-4.348750000000001,-0.31365097924583457,0.19000292312189418,-0.1625255773165741
1745334316.5232239,0.958859,-0.011833999999999999,0.077531,-9.957500000000001,-6.746250000000001,-5.7575,-0.31365097924583457,0.19000292312189418,-0.1625255773165741
1745334316.5281115,1.045113,-0.008418,0.15494,-10.92875,-3.0100000000000002,-0.805,-0.31365097924583457,0.19000292312189418,-0.1625255773165741
1745334316.536729,1.2847819999999999,-0.214842,0.207339,-11.80375,-3.9637500000000006,6.790000000000001,-0.31365097924583457,0.19000292312189418,-0.1625255773165741
1745334316.5405416,1.1442379999999999,-0.093086,0.23369099999999998,-9.887500000000001,2.6425,2.45875,-0.31365097924583457,0.19000292312189418,-0.1625255773165741
1745334316.545287,1.146983,-0.016104,0.182634,-8.846250000000001,5.425000000000001,1.9425000000000001,-0.31365097924583457,0.19000292312189418,-0.1625255773165741
1745334316.55023,1.155584,-0.021045,0.111874,-7.5600000000000005,9.336250000000001,-0.9625000000000001,-0.31365097924583457,0.19000292312189418,-0.1625255773165741
1745334316.5550466,0.944646,0.074603,0.222589,-5.97625,13.46625,0.7875000000000001,-0.31365097924583457,0.19000292312189418,-0.1625255773165741
1745334316.5599203,0.870348,0.071065,0.171044,-4.9175,8.5225,3.115,-0.31365097924583457,0.19000292312189418,-0.1625255773165741
1745334316.5648174,0.901397,0.059231,0.20136099999999998,-3.8150000000000004,4.62875,3.1412500000000003,-0.31365097924583457,0.19000292312189418,-0.1625255773165741
1745334316.5706513,1.085007,0.035807,0.182207,-2.33625,-0.6737500000000001,5.678750000000001,-0.31365097924583457,0.19000292312189418,-0.1625255773165741
1745334316.5749867,1.155828,0.017385,0.131455,-1.7937500000000002,-0.28,4.40125,-0.31365097924583457,0.19000292312189418,-0.1625255773165741
1745334316.5798054,0.9995459999999999,0.034709,0.14774199999999998,-1.2862500000000001,3.7975000000000003,4.1825,-0.31365097924583457,0.19000292312189418,-0.1625255773165741
1745334316.587868,0.9031049999999999,0.078934,0.220332,-0.5075000000000001,3.3687500000000004,4.523750000000001,-0.31365097924583457,0.19000292312189418,-0.1625255773165741
1745334316.5911896,1.095926,-0.010309,0.174887,0.7875000000000001,1.7587500000000003,-0.9012500000000001,-0.31365097924583457,0.19000292312189418,-0.1625255773165741
1745334316.5960598,1.1794959999999999,0.053558,0.132126,0.6125,5.862500000000001,-3.9112500000000003,-0.31365097924583457,0.19000292312189418,-0.1625255773165741
1745334316.6018465,1.173579,0.061793,0.183427,0.8487500000000001,9.940000000000001,-5.6000000000000005,-0.30371236480561237,0.19351066939491376,-0.16515638702133878
1745334316.6061177,1.0462719999999999,0.054107,0.199653,1.54875,9.3625,-6.6850000000000005,-0.30371236480561237,0.19351066939491376,-0.16515638702133878
1745334316.6108487,1.0772599999999999,0.046116,0.179218,1.6800000000000002,9.100000000000001,-8.426250000000001,-0.30371236480561237,0.19351066939491376,-0.16515638702133878
1745334316.6158054,1.1311229999999999,0.086254,0.196359,1.3475000000000001,10.395000000000001,-9.248750000000001,-0.30371236480561237,0.19351066939491376,-0.16515638702133878
1745334316.6206026,1.116178,0.076555,0.223382,0.69125,10.91125,-7.9887500000000005,-0.30371236480561237,0.19351066939491376,-0.16515638702133878
1745334316.6254828,1.115751,0.040382,0.194346,0.28,9.870000000000001,-6.86,-0.30371236480561237,0.19351066939491376,-0.16515638702133878
1745334316.6303577,1.084031,0.037271,0.192333,0.20125,11.173750000000002,-6.518750000000001,-0.30371236480561237,0.19351066939491376,-0.16515638702133878
1745334316.6360116,1.0340719999999999,0.064904,0.188185,-0.0175,11.97,-7.253750000000001,-0.30371236480561237,0.19351066939491376,-0.16515638702133878
1745334316.6429062,1.004487,0.095343,0.190686,-1.1900000000000002,10.955000000000002,-5.775,-0.30371236480561237,0.19351066939491376,-0.16515638702133878
1745334316.6463242,1.017785,0.10553,0.165066,-1.1900000000000002,10.955000000000002,-5.775,-0.30371236480561237,0.19351066939491376,-0.16515638702133878
1745334316.6511908,1.016748,0.102236,0.154757,-2.3975000000000004,11.637500000000001,-5.8187500000000005,-0.30371236480561237,0.19351066939491376,-0.16515638702133878
1745334316.6560626,1.067561,0.07442,0.158722,-3.5262500000000006,12.88,-6.4575000000000005,-0.30371236480561237,0.19351066939491376,-0.16515638702133878
1745334316.6609201,1.120204,0.039223,0.133163,-3.8587500000000006,14.026250000000001,-9.02125,-0.30371236480561237,0.19351066939491376,-0.16515638702133878
1745334316.6665292,1.114653,0.076921,0.137616,-6.64125,18.830000000000002,-8.68875,-0.30371236480561237,0.19351066939491376,-0.16515638702133878
1745334316.6716762,0.98637,0.039406,0.162748,-5.7925,18.87375,-8.23375,-0.30371236480561237,0.19351066939491376,-0.16515638702133878
1745334316.676357,1.0349869999999999,0.035197,0.194834,-5.888750000000001,18.3575,-8.977500000000001,-0.30371236480561237,0.19351066939491376,-0.16515638702133878
1745334316.6813083,1.122522,0.06539199999999999,0.172874,-5.94125,17.657500000000002,-9.170000000000002,-0.30371236480561237,0.19351066939491376,-0.16515638702133878
1745334316.6860957,1.152839,0.037454,0.188917,-6.405,18.865000000000002,-8.321250000000001,-0.30371236480561237,0.19351066939491376,-0.16515638702133878
1745334316.6909947,1.135637,0.009455,0.201483,-6.44,19.477500000000003,-7.9887500000000005,-0.30371236480561237,0.19351066939491376,-0.16515638702133878
1745334316.6970356,1.122034,0.013786,0.220576,-6.361250000000001,19.652500000000003,-9.152500000000002,-0.30371236480561237,0.19351066939491376,-0.16515638702133878
1745334316.7017574,1.146068,0.047945999999999996,0.223443,-6.6325,19.17125,-10.6575,-0.30371236480561237,0.19351066939491376,-0.16515638702133878
1745334316.705976,1.1825459999999999,0.069357,0.218441,-7.280000000000001,18.2175,-11.812500000000002,-0.30371236480561237,0.19351066939491376,-0.16515638702133878
1745334316.7108212,1.182607,0.08113,0.221552,-8.33,18.243750000000002,-11.80375,-0.30371236480561237,0.19351066939491376,-0.16515638702133878
1745334316.7157068,1.158939,0.08558299999999999,0.222162,-9.205,17.955000000000002,-11.252500000000001,-0.30371236480561237,0.19351066939491376,-0.16515638702133878
1745334316.720532,1.149789,0.081496,0.224358,-10.211250000000001,17.71875,-10.780000000000001,-0.30371236480561237,0.19351066939491376,-0.16515638702133878
1745334316.7254066,1.16571,0.096868,0.218807,-11.29625,17.290000000000003,-10.6575,-0.30371236480561237,0.19351066939491376,-0.16515638702133878
1745334316.7302976,1.197796,0.090707,0.215452,-12.39,17.080000000000002,-9.633750000000001,-0.30371236480561237,0.19351066939491376,-0.16515638702133878
1745334316.7361438,1.2168889999999999,0.063989,0.195688,-15.601250000000002,17.3775,-8.540000000000001,-0.30371236480561237,0.19351066939491376,-0.16515638702133878
1745334316.7405016,1.189622,0.067771,0.200934,-14.096250000000001,15.137500000000001,-8.8025,-0.30371236480561237,0.19351066939491376,-0.16515638702133878
1745334316.748363,1.109163,-0.091561,0.11895,-14.41125,12.075000000000001,-8.925,-0.30371236480561237,0.19351066939491376,-0.16515638702133878
1745334316.7516308,1.20963,0.160186,0.127002,-13.711250000000001,11.200000000000001,-6.536250000000001,-0.30371236480561237,0.19351066939491376,-0.16515638702133878
1745334316.7565365,1.037061,0.145607,0.310856,-14.148750000000001,11.830000000000002,-3.5087500000000005,-0.30371236480561237,0.19351066939491376,-0.16515638702133878
1745334316.7613966,1.334741,0.30414599999999997,0.153964,-15.093750000000002,2.54625,-6.352500000000001,-0.30371236480561237,0.19351066939491376,-0.16515638702133878
1745334316.7672043,1.588135,0.092903,0.243329,-16.905,5.932500000000001,-5.7925,-0.30371236480561237,0.19351066939491376,-0.16515638702133878
1745334316.7714756,1.16266,0.128832,0.10919,-17.438750000000002,8.496250000000002,-12.477500000000001,-0.30371236480561237,0.19351066939491376,-0.16515638702133878
1745334316.7761927,1.003145,0.195444,0.241621,-17.45625,7.7700000000000005,-12.066250000000002,-0.30371236480561237,0.19351066939491376,-0.16515638702133878
1745334316.7811556,1.087569,0.061975999999999996,0.23277599999999998,-17.56125,-0.7612500000000001,-6.615,-0.30371236480561237,0.19351066939491376,-0.16515638702133878
1745334316.7859452,1.237751,-0.034099,0.216794,-17.0975,-5.11,-5.915000000000001,-0.30371236480561237,0.19351066939491376,-0.16515638702133878
1745334316.7908273,1.165649,0.156221,0.18971,-17.4475,-4.768750000000001,-9.633750000000001,-0.30371236480561237,0.19351066939491376,-0.16515638702133878
1745334316.7957008,1.206763,0.065514,0.220881,-17.368750000000002,-6.728750000000001,-4.6375,-0.28529669687225956,0.12189418298743057,-0.15931014323297282
1745334316.8037524,1.239276,0.057767,0.28792,-17.64,-8.72375,-7.28875,-0.28529669687225956,0.12189418298743057,-0.15931014323297282
1745334316.8072731,1.212009,0.035807,0.170434,-17.82375,-12.180000000000001,-6.39625,-0.28529669687225956,0.12189418298743057,-0.15931014323297282
1745334316.8121579,1.153327,0.10638399999999999,0.288347,-18.313750000000002,-11.26125,-5.075,-0.28529669687225956,0.12189418298743057,-0.15931014323297282
1745334316.817011,1.134539,0.053558,0.256932,-18.41,-15.610000000000001,-0.42000000000000004,-0.28529669687225956,0.12189418298743057,-0.15931014323297282
1745334316.821885,1.147105,0.01647,0.21862399999999999,-18.655,-17.517500000000002,-0.385,-0.28529669687225956,0.12189418298743057,-0.15931014323297282
1745334316.8267376,1.180472,0.05551,0.205204,-18.821250000000003,-16.79125,-1.1725,-0.28529669687225956,0.12189418298743057,-0.15931014323297282
1745334316.8332548,1.15656,0.053375,0.226493,-19.521250000000002,-15.452500000000002,-0.20125,-0.28529669687225956,0.12189418298743057,-0.15931014323297282
1745334316.8371117,1.187487,0.04697,0.214354,-20.317500000000003,-15.811250000000001,-0.11375000000000002,-0.28529669687225956,0.12189418298743057,-0.15931014323297282
1745334316.8418636,1.158451,0.013603,0.190686,-21.35,-14.708750000000002,-0.00875,-0.28529669687225956,0.12189418298743057,-0.15931014323297282
1745334316.8467886,1.119533,0.008479,0.210572,-22.26875,-13.107500000000002,-0.28,-0.28529669687225956,0.12189418298743057,-0.15931014323297282
1745334316.8515992,1.129537,0.025559,0.232105,-23.231250000000003,-12.976250000000002,-0.60375,-0.28529669687225956,0.12189418298743057,-0.15931014323297282
1745334316.8576632,1.170468,0.0050019999999999995,0.210206,-25.130000000000003,-11.76875,-0.026250000000000002,-0.28529669687225956,0.12189418298743057,-0.15931014323297282
1745334316.861335,1.140151,-0.010126,0.198128,-25.130000000000003,-11.76875,-0.026250000000000002,-0.28529669687225956,0.12189418298743057,-0.15931014323297282
1745334316.8671591,1.122766,0.002806,0.231068,-25.637500000000003,-11.1125,-0.29750000000000004,-0.28529669687225956,0.12189418298743057,-0.15931014323297282
1745334316.8714018,1.117337,0.047885,0.222223,-26.048750000000002,-13.352500000000001,0.8487500000000001,-0.28529669687225956,0.12189418298743057,-0.15931014323297282
1745334316.8762183,1.1779709999999999,0.033854999999999996,0.224907,-28.840000000000003,-10.87625,1.5575,-0.28529669687225956,0.12189418298743057,-0.15931014323297282
1745334316.8811462,1.222013,0.035013999999999997,0.212524,-27.790000000000003,-9.485000000000001,1.6800000000000002,-0.28529669687225956,0.12189418298743057,-0.15931014323297282
1745334316.8859813,1.223538,0.02928,0.239303,-28.236250000000002,-9.07375,1.995,-0.28529669687225956,0.12189418298743057,-0.15931014323297282
1745334316.8908472,1.248731,0.014761999999999999,0.239425,-28.6825,-8.8725,2.415,-0.28529669687225956,0.12189418298743057,-0.15931014323297282
1745334316.8960614,1.255807,0.000793,0.265777,-28.988750000000003,-7.813750000000001,3.9287500000000004,-0.28529669687225956,0.12189418298743057,-0.15931014323297282
1745334316.9017844,1.268495,0.007259,0.269376,-29.295,-8.041250000000002,4.523750000000001,-0.28529669687225956,0.12189418298743057,-0.15931014323297282
1745334316.9095402,1.2792919999999999,0.008418,0.261141,-29.653750000000002,-7.9625,5.11875,-0.28529669687225956,0.12189418298743057,-0.15931014323297282
1745334316.9129663,1.300032,-0.001586,0.238998,-29.88125,-7.498750000000001,5.862500000000001,-0.28529669687225956,0.12189418298743057,-0.15931014323297282
1745334316.9177399,1.2802069999999999,0.009211,0.231007,-30.065,-6.0375000000000005,6.405,-0.28529669687225956,0.12189418298743057,-0.15931014323297282
1745334316.9226224,1.231102,-0.0028669999999999998,0.21984399999999998,-29.986250000000002,-5.74,6.6937500000000005,-0.28529669687225956,0.12189418298743057,-0.15931014323297282
1745334316.9274912,1.168577,-0.006893,0.185806,-29.671250000000004,-5.923750000000001,5.880000000000001,-0.28529669687225956,0.12189418298743057,-0.15931014323297282
1745334316.9331381,1.139541,0.015189,0.204411,-29.942500000000003,-7.682500000000001,5.626250000000001,-0.28529669687225956,0.12189418298743057,-0.15931014323297282
1745334316.9374826,1.14558,0.033489,0.198311,-30.712500000000002,-8.4875,5.845000000000001,-0.28529669687225956,0.12189418298743057,-0.15931014323297282
1745334316.9422753,1.150765,0.056059,0.19337,-31.85,-9.345,7.192500000000001,-0.28529669687225956,0.12189418298743057,-0.15931014323297282
1745334316.9471998,1.191147,0.018605,0.198189,-33.0225,-9.992500000000001,7.717500000000001,-0.28529669687225956,0.12189418298743057,-0.15931014323297282
1745334316.952037,1.198467,0.015677,0.193248,-34.230000000000004,-10.2725,7.175000000000001,-0.28529669687225956,0.12189418298743057,-0.15931014323297282
1745334316.9569032,1.1788859999999999,0.016165,0.187209,-35.35,-9.98375,6.326250000000001,-0.28529669687225956,0.12189418298743057,-0.15931014323297282
1745334316.9660323,1.150582,0.0046359999999999995,0.180743,-37.275000000000006,-10.01875,4.9262500000000005,-0.28529669687225956,0.12189418298743057,-0.15931014323297282
1745334316.9696512,1.106174,0.0055509999999999995,0.18056,-37.275000000000006,-10.01875,3.7187500000000004,-0.28529669687225956,0.12189418298743057,-0.15931014323297282
1745334316.9743547,1.079822,0.019642,0.192089,-40.197500000000005,-12.13625,3.9987500000000002,-0.28529669687225956,0.12189418298743057,-0.15931014323297282
1745334316.9793186,1.105442,0.024095,0.183,-39.165000000000006,-12.64375,4.733750000000001,-0.28529669687225956,0.12189418298743057,-0.15931014323297282
1745334316.9841144,1.1417979999999999,0.03294,0.192882,-39.8825,-13.413750000000002,6.62375,-0.28529669687225956,0.12189418298743057,-0.15931014323297282
1745334316.9889953,1.1788859999999999,0.009699,0.188673,-40.52125,-14.656250000000002,7.717500000000001,-0.28529669687225956,0.12189418298743057,-0.15931014323297282
1745334316.9938726,1.19011,-0.0017079999999999999,0.159393,-40.74875,-15.496250000000002,6.615,-0.26746565331774336,-0.0014615609470914938,-0.14761765565624085
1745334316.9995081,1.014918,0.029707,0.14823,-40.705000000000005,-16.51125,5.0925,-0.26746565331774336,-0.0014615609470914938,-0.14761765565624085
1745334317.0038779,0.9347639999999999,0.085217,0.121146,-41.25625,-19.398750000000003,3.2900000000000005,-0.26746565331774336,-0.0014615609470914938,-0.14761765565624085
1745334317.0086486,0.890173,0.113948,0.114924,-42.28875000000001,-21.962500000000002,2.8000000000000003,-0.26746565331774336,-0.0014615609470914938,-0.14761765565624085
1745334317.016677,0.890966,0.106811,0.123586,-43.758750000000006,-24.99875,3.8062500000000004,-0.26746565331774336,-0.0014615609470914938,-0.14761765565624085
1745334317.0200121,0.907924,0.081862,0.114192,-45.097500000000004,-27.895000000000003,6.098750000000001,-0.26746565331774336,-0.0014615609470914938,-0.14761765565624085
1745334317.0248773,0.99247,0.012322,0.100589,-46.462500000000006,-29.601250000000004,7.1312500000000005,-0.26746565331774336,-0.0014615609470914938,-0.14761765565624085
1745334317.0304134,1.146007,0.086925,0.129381,-47.258750000000006,-30.441250000000004,4.66375,-0.26746565331774336,-0.0014615609470914938,-0.14761765565624085
1745334317.0352113,1.187853,0.035563,0.042822,-50.837500000000006,-23.4325,2.5987500000000003,-0.26746565331774336,-0.0014615609470914938,-0.14761765565624085
1745334317.0399253,1.10898,0.021289,0.155245,-50.785000000000004,-25.43625,2.52875,-0.26746565331774336,-0.0014615609470914938,-0.14761765565624085
1745334317.0449336,1.12728,0.050508,0.145607,-52.167500000000004,-24.727500000000003,3.5175000000000005,-0.26746565331774336,-0.0014615609470914938,-0.14761765565624085
1745334317.0496905,1.066524,0.057096,0.142313,-53.08625000000001,-24.70125,4.1475,-0.26746565331774336,-0.0014615609470914938,-0.14761765565624085
1745334317.0545533,1.028216,0.025986,0.138714,-53.261250000000004,-26.258750000000003,3.6400000000000006,-0.26746565331774336,-0.0014615609470914938,-0.14761765565624085
1745334317.0594158,1.096658,0.053741,0.13633499999999998,-53.27875,-26.705000000000002,4.2875000000000005,-0.26746565331774336,-0.0014615609470914938,-0.14761765565624085
1745334317.0655644,1.070001,0.043188,0.122915,-53.313750000000006,-25.348750000000003,5.7225,-0.26746565331774336,-0.0014615609470914938,-0.14761765565624085
1745334317.0719345,1.007598,0.026352,0.157563,-53.13875,-24.49125,6.781250000000001,-0.26746565331774336,-0.0014615609470914938,-0.14761765565624085
1745334317.0753736,1.023214,0.001281,0.126392,-52.56125000000001,-26.608750000000004,7.595000000000001,-0.26746565331774336,-0.0014615609470914938,-0.14761765565624085
1745334317.0802681,1.081347,0.025863999999999998,0.12864899999999999,-51.931250000000006,-26.915000000000003,6.807500000000001,-0.26746565331774336,-0.0014615609470914938,-0.14761765565624085
1745334317.0851338,1.132831,-0.004209,0.13298,-51.31875,-25.637500000000003,7.06125,-0.26746565331774336,-0.0014615609470914938,-0.14761765565624085
1745334317.0899978,1.086288,-0.124684,0.14823,-50.2775,-24.185000000000002,6.553750000000001,-0.26746565331774336,-0.0014615609470914938,-0.14761765565624085
1745334317.0953333,1.1451529999999999,-0.198128,0.180743,-47.048750000000005,-22.96,5.53875,-0.26746565331774336,-0.0014615609470914938,-0.14761765565624085
1745334317.1005058,1.153205,-0.091988,0.117852,-43.86375,-20.746250000000003,1.9600000000000002,-0.26746565331774336,-0.0014615609470914938,-0.14761765565624085
1745334317.105153,0.997838,0.038369,0.194041,-43.260000000000005,-18.340000000000003,4.03375,-0.26746565331774336,-0.0014615609470914938,-0.14761765565624085
1745334317.1100605,0.865285,0.070394,0.198433,-43.767500000000005,-22.70625,6.88625,-0.26746565331774336,-0.0014615609470914938,-0.14761765565624085
1745334317.1148767,0.9256139999999999,0.0062829999999999995,0.203008,-44.03,-24.071250000000003,8.557500000000001,-0.26746565331774336,-0.0014615609470914938,-0.14761765565624085
1745334317.1197739,1.030534,-0.041174999999999996,0.17946199999999998,-44.6075,-22.19875,9.205,-0.26746565331774336,-0.0014615609470914938,-0.14761765565624085
1745334317.1258175,0.968924,0.023912,0.167567,-45.64000000000001,-22.4525,10.797500000000001,-0.26746565331774336,-0.0014615609470914938,-0.14761765565624085
1745334317.1306107,0.939644,0.005795,0.180377,-46.41875,-22.461250000000003,11.611250000000002,-0.26746565331774336,-0.0014615609470914938,-0.14761765565624085
1745334317.1346161,0.987651,0.006161,0.153171,-46.383750000000006,-23.58125,11.24375,-0.26746565331774336,-0.0014615609470914938,-0.14761765565624085
1745334317.1393502,1.077504,-0.00915,0.147681,-46.50625,-21.945000000000004,12.46,-0.26746565331774336,-0.0014615609470914938,-0.14761765565624085
1745334317.144286,1.037488,0.00061,0.140239,-46.57625,-19.110000000000003,13.7725,-0.26746565331774336,-0.0014615609470914938,-0.14761765565624085
1745334317.1494114,1.090192,-0.070394,0.150548,-46.55875,-15.505,12.4075,-0.26746565331774336,-0.0014615609470914938,-0.14761765565624085
1745334317.1542728,1.060973,-0.017263,0.133163,-46.05125,-12.451250000000002,10.902500000000002,-0.26746565331774336,-0.0014615609470914938,-0.14761765565624085
1745334317.1591492,1.084702,0.044712999999999996,0.101077,-45.93750000000001,-9.415000000000001,10.33375,-0.26746565331774336,-0.0014615609470914938,-0.14761765565624085
1745334317.1648512,0.990152,0.01342,0.126514,-46.042500000000004,-5.477500000000001,9.7825,-0.26746565331774336,-0.0014615609470914938,-0.14761765565624085
1745334317.1690998,0.931287,-0.012688,0.127063,-45.517500000000005,-4.296250000000001,8.207500000000001,-0.26746565331774336,-0.0014615609470914938,-0.14761765565624085
1745334317.1739395,0.937936,0.020862,0.12071899999999999,-44.84375000000001,-3.21125,5.1625000000000005,-0.26746565331774336,-0.0014615609470914938,-0.14761765565624085
1745334317.1800187,0.9678869999999999,0.05246,0.096441,-44.563750000000006,1.715,3.2900000000000005,-0.26746565331774336,-0.0014615609470914938,-0.14761765565624085
1745334317.183671,0.930616,0.060451,0.108763,-44.70375000000001,1.715,3.2900000000000005,-0.26746565331774336,-0.0014615609470914938,-0.14761765565624085
1745334317.1885576,0.84546,0.071797,0.115717,-44.9575,3.43,3.4125000000000005,-0.267173341128325,-0.05787781350482315,-0.1376790412160187
1745334317.1935701,0.827099,0.073993,0.105713,-44.89625,4.112500000000001,4.305000000000001,-0.267173341128325,-0.05787781350482315,-0.1376790412160187
1745334317.1994777,0.8854759999999999,0.089182,0.108702,-45.78,6.825000000000001,8.933750000000002,-0.267173341128325,-0.05787781350482315,-0.1376790412160187
1745334317.203944,0.934703,0.079361,0.090585,-46.22625000000001,10.080000000000002,11.34875,-0.267173341128325,-0.05787781350482315,-0.1376790412160187
1745334317.208837,0.957944,0.044896,0.082716,-46.383750000000006,12.381250000000001,12.81,-0.267173341128325,-0.05787781350482315,-0.1376790412160187
1745334317.2136898,0.989664,-0.03721,0.079056,-46.602500000000006,15.05,13.02875,-0.267173341128325,-0.05787781350482315,-0.1376790412160187
1745334317.2185714,1.082506,0.009028,0.114192,-46.698750000000004,18.637500000000003,10.47375,-0.267173341128325,-0.05787781350482315,-0.1376790412160187
1745334317.2234328,1.094157,-0.013542,0.074603,-46.821250000000006,21.32375,9.651250000000001,-0.267173341128325,-0.05787781350482315,-0.1376790412160187
1745334317.2326245,1.016382,-0.035746,0.105957,-47.057500000000005,25.2875,8.89,-0.267173341128325,-0.05787781350482315,-0.1376790412160187
1745334317.2364535,0.934398,-0.021228,0.124501,-46.37500000000001,27.308750000000003,3.9637500000000006,-0.267173341128325,-0.05787781350482315,-0.1376790412160187
1745334317.2413337,0.889929,-0.011041,0.108153,-45.6925,26.740000000000002,1.1375000000000002,-0.267173341128325,-0.05787781350482315,-0.1376790412160187
1745334317.2462103,0.9021899999999999,0.019398,0.058865,-44.80875,26.862500000000004,-0.8137500000000001,-0.267173341128325,-0.05787781350482315,-0.1376790412160187
1745334317.2512,0.742553,-0.013297999999999999,0.117364,-43.93375,27.58875,-0.5425000000000001,-0.267173341128325,-0.05787781350482315,-0.1376790412160187
1745334317.2559652,0.72407,-0.012627,0.107482,-42.315000000000005,24.036250000000003,-0.35875,-0.267173341128325,-0.05787781350482315,-0.1376790412160187
1745334317.2615035,0.781044,0.033854999999999996,0.101077,-40.8275,20.545,-1.3475000000000001,-0.267173341128325,-0.05787781350482315,-0.1376790412160187
1745334317.2666197,0.835822,0.023485,0.102175,-39.7075,18.243750000000002,0.44625000000000004,-0.267173341128325,-0.05787781350482315,-0.1376790412160187
1745334317.2712755,0.916708,0.023241,0.094916,-38.85875,17.141250000000003,0.56,-0.267173341128325,-0.05787781350482315,-0.1376790412160187
1745334317.2762148,0.9420229999999999,0.027999,0.093208,-38.465,17.59625,-0.061250000000000006,-0.267173341128325,-0.05787781350482315,-0.1376790412160187
1745334317.2810125,0.990335,0.016897,0.113338,-38.63125,18.375,-0.44625000000000004,-0.267173341128325,-0.05787781350482315,-0.1376790412160187
1745334317.2874532,1.062864,0.030622,0.13017399999999998,-39.12125,18.602500000000003,-3.2725000000000004,-0.267173341128325,-0.05787781350482315,-0.1376790412160187
1745334317.2908254,1.062681,0.036782999999999996,0.093635,-40.066250000000004,18.532500000000002,-3.2725000000000004,-0.267173341128325,-0.05787781350482315,-0.1376790412160187
1745334317.2967315,1.008818,0.013481,0.130418,-41.56250000000001,20.545,-4.795000000000001,-0.267173341128325,-0.05787781350482315,-0.1376790412160187
1745334317.3008869,1.038098,0.0070149999999999995,0.142435,-42.455000000000005,19.285,-6.501250000000001,-0.267173341128325,-0.05787781350482315,-0.1376790412160187
1745334317.3056767,1.030534,-0.003904,0.085766,-43.42625,19.34625,-7.595000000000001,-0.267173341128325,-0.05787781350482315,-0.1376790412160187
1745334317.3106148,1.072197,-0.019703,0.127734,-44.1525,22.548750000000002,-6.720000000000001,-0.267173341128325,-0.05787781350482315,-0.1376790412160187
1745334317.315448,1.071343,-0.0073809999999999995,0.10431,-44.45875,26.468750000000004,-3.0275000000000003,-0.267173341128325,-0.05787781350482315,-0.1376790412160187
1745334317.320322,1.036939,0.01098,0.163053,-46.987500000000004,25.060000000000002,0.026250000000000002,-0.267173341128325,-0.05787781350482315,-0.1376790412160187
1745334317.325316,1.147898,0.000793,0.167079,-45.508750000000006,26.626250000000002,1.8550000000000002,-0.267173341128325,-0.05787781350482315,-0.1376790412160187
1745334317.3314161,1.192672,-0.067588,0.155184,-45.508750000000006,30.205000000000002,1.1375000000000002,-0.267173341128325,-0.05787781350482315,-0.1376790412160187
1745334317.3390558,1.136369,-0.023851,0.134749,-45.24625,31.955000000000002,-0.56,-0.267173341128325,-0.05787781350482315,-0.1376790412160187
1745334317.342472,1.023458,-0.0055509999999999995,0.159576,-45.298750000000005,33.783750000000005,-2.7912500000000002,-0.267173341128325,-0.05787781350482315,-0.1376790412160187
1745334317.3472505,0.972096,0.057888999999999996,0.147559,-45.3425,33.76625000000001,-5.845000000000001,-0.267173341128325,-0.05787781350482315,-0.1376790412160187
1745334317.352143,0.868152,0.068869,0.154696,-45.93750000000001,33.60875,-7.831250000000001,-0.267173341128325,-0.05787781350482315,-0.1376790412160187
1745334317.3570068,0.850889,0.040809,0.17641199999999999,-46.620000000000005,32.602500000000006,-8.51375,-0.267173341128325,-0.05787781350482315,-0.1376790412160187
1745334317.3627896,0.843752,0.042456,0.145668,-47.87125,30.310000000000002,-12.276250000000001,-0.267173341128325,-0.05787781350482315,-0.1376790412160187
1745334317.3670897,0.846436,0.031415,0.161162,-47.87125,29.128750000000004,-13.641250000000001,-0.267173341128325,-0.05787781350482315,-0.1376790412160187
1745334317.3718874,0.860466,0.019093,0.150853,-50.435,29.137500000000003,-13.440000000000001,-0.267173341128325,-0.05787781350482315,-0.1376790412160187
1745334317.3767977,0.8939549999999999,0.007259,0.20252,-52.368750000000006,27.9475,-12.783750000000001,-0.267173341128325,-0.05787781350482315,-0.1376790412160187
1745334317.3816612,0.914451,0.001952,0.230824,-54.573750000000004,26.827500000000004,-11.602500000000001,-0.267173341128325,-0.05787781350482315,-0.1376790412160187
1745334317.3865516,0.968131,0.029158,0.195322,-56.892500000000005,25.488750000000003,-9.843750000000002,-0.26541946799181526,-0.08623209587839813,-0.17538731365097926
1745334317.395468,1.024739,0.014823,0.193431,-61.713750000000005,26.958750000000002,-4.62,-0.26541946799181526,-0.08623209587839813,-0.17538731365097926
1745334317.4009135,0.9749019999999999,-0.020191,0.164456,-63.7,25.891250000000003,-4.69,-0.26541946799181526,-0.08623209587839813,-0.17538731365097926
1745334317.4056811,0.9721569999999999,0.022814,0.138043,-64.575,26.188750000000002,-4.751250000000001,-0.26541946799181526,-0.08623209587839813,-0.17538731365097926
1745334317.4105897,0.914756,0.018422,0.117974,-65.37125,26.78375,-3.8325000000000005,-0.26541946799181526,-0.08623209587839813,-0.17538731365097926
1745334317.4154563,0.818986,-0.013359,0.121573,-66.01,27.492500000000003,-3.7800000000000002,-0.26541946799181526,-0.08623209587839813,-0.17538731365097926
1745334317.4203248,0.801906,-0.026168999999999998,0.093818,-65.9225,26.41625,-4.558750000000001,-0.26541946799181526,-0.08623209587839813,-0.17538731365097926
1745334317.4256473,0.852231,-0.011956,0.053314,-65.42375000000001,25.952500000000004,-5.11,-0.26541946799181526,-0.08623209587839813,-0.17538731365097926
1745334317.4317112,0.857416,-0.0013419999999999999,0.067344,-64.94250000000001,27.361250000000002,-5.705000000000001,-0.26541946799181526,-0.08623209587839813,-0.17538731365097926
1745334317.436841,0.827099,0.004697,0.060939,-64.51375,26.950000000000003,-6.772500000000001,-0.26541946799181526,-0.08623209587839813,-0.17538731365097926
1745334317.44174,0.795135,-0.010431,0.071919,-63.831250000000004,21.113750000000003,-11.672500000000001,-0.26541946799181526,-0.08623209587839813,-0.17538731365097926
1745334317.448135,0.815265,0.036051,0.030439,-62.55375000000001,19.512500000000003,-14.288750000000002,-0.26541946799181526,-0.08623209587839813,-0.17538731365097926
1745334317.4515429,0.815265,0.036051,0.030439,-62.370000000000005,16.38875,-16.37125,-0.26541946799181526,-0.08623209587839813,-0.17538731365097926
1745334317.4564736,0.81679,0.040687,0.02501,-61.52125000000001,11.305000000000001,-19.1975,-0.26541946799181526,-0.08623209587839813,-0.17538731365097926
1745334317.4622235,0.807701,0.037881,0.017019,-60.838750000000005,7.848750000000001,-21.13125,-0.26541946799181526,-0.08623209587839813,-0.17538731365097926
1745334317.4664128,0.816729,0.028059999999999998,0.012627,-60.2,5.031250000000001,-24.106250000000003,-0.26541946799181526,-0.08623209587839813,-0.17538731365097926
1745334317.4711986,0.83448,0.014091,0.017202,-59.61375,3.1237500000000002,-26.626250000000002,-0.26541946799181526,-0.08623209587839813,-0.17538731365097926
1745334317.4761364,0.845887,-0.019154,0.032208,-59.010000000000005,1.9600000000000002,-27.667500000000004,-0.26541946799181526,-0.08623209587839813,-0.17538731365097926
1745334317.4810002,0.837652,-0.024766,0.031171,-58.24000000000001,0.4025,-27.720000000000002,-0.26541946799181526,-0.08623209587839813,-0.17538731365097926
1745334317.485843,0.816668,-0.004148,0.07679899999999999,-57.846250000000005,-0.8137500000000001,-26.608750000000004,-0.26541946799181526,-0.08623209587839813,-0.17538731365097926
1745334317.4908535,0.7987339999999999,0.019032,0.102236,-58.1525,-4.445,-25.03375,-0.26541946799181526,-0.08623209587839813,-0.17538731365097926
1745334317.5004382,0.831247,-0.016531,0.07808,-58.80875,-8.51375,-23.406250000000004,-0.26541946799181526,-0.08623209587839813,-0.17538731365097926
1745334317.5101414,0.992653,-0.018666,0.084302,-60.401250000000005,-15.260000000000002,-19.871250000000003,-0.26541946799181526,-0.08623209587839813,-0.17538731365097926
1745334317.5135252,1.021262,-0.031415,0.070455,-60.6375,-15.72375,-19.923750000000002,-0.26541946799181526,-0.08623209587839813,-0.17538731365097926
1745334317.5184338,1.004853,-0.042883,0.14127599999999998,-60.532500000000006,-15.426250000000001,-20.422500000000003,-0.26541946799181526,-0.08623209587839813,-0.17538731365097926
1745334317.5232956,1.024373,-0.032025,0.060756,-59.972500000000004,-18.165000000000003,-21.043750000000003,-0.26541946799181526,-0.08623209587839813,-0.17538731365097926
1745334317.5291765,1.008269,-0.028243,0.088633,-59.885000000000005,-16.275000000000002,-21.341250000000002,-0.26541946799181526,-0.08623209587839813,-0.17538731365097926
1745334317.5333197,0.948062,-0.020739999999999998,0.08851099999999999,-59.56125000000001,-15.697500000000002,-21.586250000000003,-0.26541946799181526,-0.08623209587839813,-0.17538731365097926
1745334317.5380964,0.870043,-0.009028,0.086132,-59.290000000000006,-15.566250000000002,-22.172500000000003,-0.26541946799181526,-0.08623209587839813,-0.17538731365097926
1745334317.5430186,0.832955,-0.017141,0.096502,-58.96625,-15.715000000000002,-23.345000000000002,-0.26541946799181526,-0.08623209587839813,-0.17538731365097926
1745334317.54786,0.8279529999999999,0.000793,0.074298,-58.61625000000001,-15.986250000000002,-25.130000000000003,-0.26541946799181526,-0.08623209587839813,-0.17538731365097926
1745334317.5527623,0.819413,0.023363,0.074298,-58.37125,-14.840000000000002,-25.777500000000003,-0.26541946799181526,-0.08623209587839813,-0.17538731365097926
1745334317.5577676,0.759389,0.002806,0.088572,-58.03875000000001,-14.008750000000001,-25.2525,-0.26541946799181526,-0.08623209587839813,-0.17538731365097926
1745334317.5648794,0.776103,0.042151,0.08497299999999999,-57.14625,-15.426250000000001,-23.187500000000004,-0.26541946799181526,-0.08623209587839813,-0.17538731365097926
1745334317.569403,0.816058,0.02745,0.092781,-56.883750000000006,-16.065,-20.903750000000002,-0.26541946799181526,-0.08623209587839813,-0.17538731365097926
1745334317.5743508,0.87108,0.030866,0.071858,-56.446250000000006,-16.73,-19.372500000000002,-0.26541946799181526,-0.08623209587839813,-0.17538731365097926
1745334317.5791366,0.8888309999999999,0.034343,0.093208,-56.472500000000004,-15.373750000000001,-17.89375,-0.26541946799181526,-0.08623209587839813,-0.17538731365097926
1745334317.584034,0.925797,-0.007686,0.111264,-56.42875000000001,-15.155000000000001,-16.84375,-0.2727272727272727,-0.09850920783396667,-0.1974568839520608
1745334317.588898,0.9563579999999999,0.015433,0.113704,-56.50750000000001,-14.350000000000001,-17.036250000000003,-0.2727272727272727,-0.09850920783396667,-0.1974568839520608
1745334317.5954278,1.019676,0.007076,0.150731,-57.400000000000006,-12.748750000000001,-16.695,-0.2727272727272727,-0.09850920783396667,-0.1974568839520608
1745334317.5996969,1.015101,0.009943,0.137433,-57.89875000000001,-11.637500000000001,-17.08875,-0.2727272727272727,-0.09850920783396667,-0.1974568839520608
1745334317.6045156,0.9925309999999999,-0.008235,0.15799,-58.39750000000001,-9.266250000000001,-17.613750000000003,-0.2727272727272727,-0.09850920783396667,-0.1974568839520608
1745334317.6094234,0.989054,0.001281,0.15555,-58.75625000000001,-7.796250000000001,-18.637500000000003,-0.2727272727272727,-0.09850920783396667,-0.1974568839520608
1745334317.617402,0.9813069999999999,0.014274,0.16836,-59.98125,-4.83875,-18.83875,-0.2727272727272727,-0.09850920783396667,-0.1974568839520608
1745334317.6208148,0.917379,0.059231,0.17763199999999998,-60.838750000000005,-4.43625,-18.3575,-0.2727272727272727,-0.09850920783396667,-0.1974568839520608
1745334317.6268046,0.831125,0.0055509999999999995,0.221491,-61.43375,-5.1537500000000005,-17.220000000000002,-0.2727272727272727,-0.09850920783396667,-0.1974568839520608
1745334317.6308138,0.8358829999999999,0.035502,0.193309,-61.477500000000006,-8.680000000000001,-17.1325,-0.2727272727272727,-0.09850920783396667,-0.1974568839520608
1745334317.6355762,0.8833409999999999,0.066673,0.178486,-62.04625000000001,-11.0775,-17.0625,-0.2727272727272727,-0.09850920783396667,-0.1974568839520608
1745334317.6406426,0.891393,0.028548,0.19702999999999998,-62.352500000000006,-12.783750000000001,-14.1925,-0.2727272727272727,-0.09850920783396667,-0.1974568839520608
1745334317.645387,0.920002,0.019398,0.162565,-62.27375000000001,-15.093750000000002,-14.166250000000002,-0.2727272727272727,-0.09850920783396667,-0.1974568839520608
1745334317.6502438,0.920185,0.020557,0.13572499999999998,-61.5825,-15.216250000000002,-14.726250000000002,-0.2727272727272727,-0.09850920783396667,-0.1974568839520608
1745334317.655121,0.952576,0.03599,0.116754,-60.821250000000006,-15.058750000000002,-15.400000000000002,-0.2727272727272727,-0.09850920783396667,-0.1974568839520608
1745334317.6609664,0.928847,0.03599,0.107665,-60.15625000000001,-13.6675,-15.96,-0.2727272727272727,-0.09850920783396667,-0.1974568839520608
1745334317.6651797,0.913048,0.046176999999999996,0.145119,-59.36000000000001,-12.521250000000002,-16.03,-0.2727272727272727,-0.09850920783396667,-0.1974568839520608
1745334317.6716208,0.890905,0.058133,0.113826,-58.353750000000005,-12.950000000000001,-14.918750000000001,-0.2727272727272727,-0.09850920783396667,-0.1974568839520608
1745334317.6750576,0.889319,0.057096,0.113826,-58.353750000000005,-12.950000000000001,-14.918750000000001,-0.2727272727272727,-0.09850920783396667,-0.1974568839520608
1745334317.6798801,0.913109,0.062464,0.115229,-58.205000000000005,-13.457500000000001,-14.131250000000001,-0.2727272727272727,-0.09850920783396667,-0.1974568839520608
1745334317.6847537,0.9286639999999999,0.030012,0.14219099999999998,-57.855000000000004,-13.7725,-11.24375,-0.2727272727272727,-0.09850920783396667,-0.1974568839520608
1745334317.689697,0.9516,0.013969,0.12925899999999999,-57.706250000000004,-14.297500000000001,-10.33375,-0.2727272727272727,-0.09850920783396667,-0.1974568839520608
1745334317.6972852,0.999485,-0.019825,0.152317,-57.260000000000005,-14.595,-9.248750000000001,-0.2727272727272727,-0.09850920783396667,-0.1974568839520608
1745334317.7019026,1.046638,-0.018178,0.133834,-56.883750000000006,-14.778750000000002,-8.846250000000001,-0.2727272727272727,-0.09850920783396667,-0.1974568839520608
1745334317.7068436,1.064328,-0.030866,0.131272,-56.253750000000004,-13.580000000000002,-8.505,-0.2727272727272727,-0.09850920783396667,-0.1974568839520608
1745334317.7116332,1.039623,-0.041053,0.136762,-55.658750000000005,-12.15375,-10.43875,-0.2727272727272727,-0.09850920783396667,-0.1974568839520608
1745334317.7165308,0.9794769999999999,-0.02135,0.148901,-55.230000000000004,-11.593750000000002,-14.761250000000002,-0.2727272727272727,-0.09850920783396667,-0.1974568839520608
1745334317.7254763,0.949831,-0.0068319999999999995,0.146766,-54.24125000000001,-12.451250000000002,-22.758750000000003,-0.2727272727272727,-0.09850920783396667,-0.1974568839520608
1745334317.7305722,0.868274,0.079849,0.133529,-53.7775,-13.825000000000001,-24.867500000000003,-0.2727272727272727,-0.09850920783396667,-0.1974568839520608
1745334317.735325,0.788791,0.12315899999999999,0.149145,-53.2,-15.9425,-24.613750000000003,-0.2727272727272727,-0.09850920783396667,-0.1974568839520608
1745334317.7402246,0.742614,0.13054,0.144326,-52.71000000000001,-19.71375,-22.330000000000002,-0.2727272727272727,-0.09850920783396667,-0.1974568839520608
1745334317.7450206,0.758108,0.109556,0.137067,-52.736250000000005,-23.79125,-20.04625,-0.2727272727272727,-0.09850920783396667,-0.1974568839520608
1745334317.7499173,0.842044,0.045566999999999996,0.109129,-52.78000000000001,-27.335,-18.173750000000002,-0.2727272727272727,-0.09850920783396667,-0.1974568839520608
1745334317.7547808,0.936533,0.012627,0.081008,-52.753750000000004,-28.288750000000004,-18.235000000000003,-0.2727272727272727,-0.09850920783396667,-0.1974568839520608
1745334317.7608418,0.982161,0.022265,0.066307,-52.85875000000001,-24.92,-21.227500000000003,-0.2727272727272727,-0.09850920783396667,-0.1974568839520608
1745334317.7648883,0.9946659999999999,-0.062769,0.071614,-52.535000000000004,-22.977500000000003,-26.328750000000003,-0.2727272727272727,-0.09850920783396667,-0.1974568839520608
1745334317.7696493,1.007476,0.035685,0.053496999999999996,-52.438750000000006,-22.356250000000003,-28.245,-0.2727272727272727,-0.09850920783396667,-0.1974568839520608
1745334317.777734,0.974414,-0.024156,0.079605,-52.36000000000001,-20.25625,-29.898750000000003,-0.2823735749780766,-0.08477053493130664,-0.18868751826951183
1745334317.7811882,0.930982,-0.008845,0.086559,-51.6075,-20.160000000000004,-31.018750000000004,-0.2823735749780766,-0.08477053493130664,-0.18868751826951183
1745334317.78605,0.946415,-0.011712,0.083326,-50.35625,-20.063750000000002,-31.106250000000003,-0.2823735749780766,-0.08477053493130664,-0.18868751826951183
1745334317.791447,0.961665,0.009028,0.07063799999999999,-49.542500000000004,-20.098750000000003,-31.202500000000004,-0.2823735749780766,-0.08477053493130664,-0.18868751826951183
1745334317.79647,0.9462929999999999,0.021106,0.115717,-48.99125000000001,-19.06625,-30.432500000000005,-0.2823735749780766,-0.08477053493130664,-0.18868751826951183
1745334317.801081,0.9052399999999999,0.010309,0.162748,-48.77250000000001,-19.775000000000002,-29.04125,-0.2823735749780766,-0.08477053493130664,-0.18868751826951183
1745334317.8059208,0.894443,-0.017324,0.129747,-48.18625,-21.8575,-27.798750000000002,-0.2823735749780766,-0.08477053493130664,-0.18868751826951183
1745334317.8108015,0.9274439999999999,0.023119,0.143228,-47.59125,-22.12,-25.970000000000002,-0.2823735749780766,-0.08477053493130664,-0.18868751826951183
1745334317.8156722,0.98088,0.049044,0.09729499999999999,-46.987500000000004,-20.343750000000004,-24.937500000000004,-0.2823735749780766,-0.08477053493130664,-0.18868751826951183
1745334317.821203,0.966484,0.057888999999999996,0.10668899999999999,-46.112500000000004,-20.92125,-23.021250000000002,-0.2823735749780766,-0.08477053493130664,-0.18868751826951183
1745334317.826111,0.910303,0.05002,0.09820999999999999,-45.386250000000004,-20.88625,-21.848750000000003,-0.2823735749780766,-0.08477053493130664,-0.18868751826951183
1745334317.833293,0.97112,0.082472,0.090707,-45.045,-21.16625,-20.720000000000002,-0.2823735749780766,-0.08477053493130664,-0.18868751826951183
1745334317.8366926,1.016077,0.094306,0.094489,-45.4125,-19.81875,-18.76875,-0.2823735749780766,-0.08477053493130664,-0.18868751826951183
1745334317.8415718,0.975878,0.087413,0.112423,-46.05125,-18.375,-17.63125,-0.2823735749780766,-0.08477053493130664,-0.18868751826951183
1745334317.8464615,0.9980209999999999,0.032574,0.144631,-46.66375000000001,-17.22875,-15.583750000000002,-0.2823735749780766,-0.08477053493130664,-0.18868751826951183
1745334317.8523748,1.012844,0.051484,0.114924,-47.477500000000006,-16.861250000000002,-16.555000000000003,-0.2823735749780766,-0.08477053493130664,-0.18868751826951183
1745334317.8568592,0.972584,0.013054,0.108946,-48.56250000000001,-15.68875,-16.03,-0.2823735749780766,-0.08477053493130664,-0.18868751826951183
1745334317.8616936,1.006927,0.006161,0.11699799999999999,-48.9825,-14.41125,-16.3275,-0.2823735749780766,-0.08477053493130664,-0.18868751826951183
1745334317.8665981,0.9663619999999999,0.061426999999999995,0.108092,-49.13125,-12.845,-17.01875,-0.2823735749780766,-0.08477053493130664,-0.18868751826951183
1745334317.871467,0.903471,0.08003199999999999,0.09436699999999999,-49.14875000000001,-12.250000000000002,-15.435000000000002,-0.2823735749780766,-0.08477053493130664,-0.18868751826951183
1745334317.876333,0.85156,0.104737,0.078141,-49.06125,-12.853750000000002,-10.675,-0.2823735749780766,-0.08477053493130664,-0.18868751826951183
1745334317.8816216,0.833016,0.083692,0.096014,-48.77250000000001,-15.461250000000001,-7.157500000000001,-0.2823735749780766,-0.08477053493130664,-0.18868751826951183
1745334317.8893144,0.967094,0.157136,0.062891,-49.157500000000006,-14.936250000000001,-3.2550000000000003,-0.2823735749780766,-0.08477053493130664,-0.18868751826951183
1745334317.893022,0.9907009999999999,0.110288,0.082838,-50.07625,-13.886250000000002,2.2487500000000002,-0.2823735749780766,-0.08477053493130664,-0.18868751826951183
1745334317.8980222,0.9974109999999999,0.119255,0.074298,-50.45250000000001,-14.1925,4.8825,-0.2823735749780766,-0.08477053493130664,-0.18868751826951183
1745334317.902796,1.20048,0.031476,0.091683,-50.627500000000005,-11.795000000000002,6.326250000000001,-0.2823735749780766,-0.08477053493130664,-0.18868751826951183
1745334317.9076772,1.318759,0.140178,0.095099,-51.31,-8.995000000000001,4.26125,-0.2823735749780766,-0.08477053493130664,-0.18868751826951183
1745334317.912558,1.237507,0.0915,0.074969,-53.06875000000001,-3.325,5.0925,-0.2823735749780766,-0.08477053493130664,-0.18868751826951183
1745334317.9181964,1.018883,0.086864,0.151219,-54.03125000000001,0.5425000000000001,3.8237500000000004,-0.2823735749780766,-0.08477053493130664,-0.18868751826951183
1745334317.9225135,0.84546,0.079971,0.110898,-54.3725,-1.6187500000000001,1.2600000000000002,-0.2823735749780766,-0.08477053493130664,-0.18868751826951183
1745334317.9273214,0.972218,0.122671,0.163602,-54.03125000000001,-2.2837500000000004,1.4175000000000002,-0.2823735749780766,-0.08477053493130664,-0.18868751826951183
1745334317.9322479,1.070245,0.17238599999999998,0.014761999999999999,-53.80375000000001,-3.8500000000000005,3.5000000000000004,-0.2823735749780766,-0.08477053493130664,-0.18868751826951183
1745334317.937106,1.017541,0.1525,0.102663,-53.768750000000004,0.9012500000000001,14.000000000000002,-0.2823735749780766,-0.08477053493130664,-0.18868751826951183
1745334317.9431965,0.913109,0.094123,0.13237,-51.730000000000004,-2.66,18.76875,-0.2823735749780766,-0.08477053493130664,-0.18868751826951183
1745334317.9469514,0.913109,0.094123,0.13237,-50.89875000000001,-3.4475000000000002,17.05375,-0.2823735749780766,-0.08477053493130664,-0.18868751826951183
1745334317.95271,1.162355,0.146949,-0.032208,-50.82000000000001,0.11375000000000002,15.207500000000001,-0.2823735749780766,-0.08477053493130664,-0.18868751826951183
1745334317.9572587,1.145031,0.045201,0.096075,-51.25750000000001,8.155000000000001,15.776250000000001,-0.2823735749780766,-0.08477053493130664,-0.18868751826951183
1745334317.9621446,1.057313,0.166713,0.104188,-51.222500000000004,9.52875,12.381250000000001,-0.2823735749780766,-0.08477053493130664,-0.18868751826951183
1745334317.9669824,0.916647,0.151158,0.038674,-52.080000000000005,10.062500000000002,13.291250000000002,-0.2823735749780766,-0.08477053493130664,-0.18868751826951183
1745334317.9718769,0.939034,0.089243,0.07972699999999999,-52.736250000000005,11.68125,14.218750000000002,-0.2823735749780766,-0.08477053493130664,-0.18868751826951183
1745334317.9767475,0.913963,0.196176,0.061061,-52.92875000000001,11.22625,14.41125,-0.30634317451037707,-0.07687810581701257,-0.19336451330020463
1745334317.982385,0.912133,0.071614,0.123525,-53.173750000000005,12.048750000000002,19.442500000000003,-0.30634317451037707,-0.07687810581701257,-0.19336451330020463
1745334317.9870532,0.894687,0.074725,0.069418,-53.13,11.31375,19.477500000000003,-0.30634317451037707,-0.07687810581701257,-0.19336451330020463
1745334317.9949405,0.8994449999999999,0.090097,0.091073,-52.605000000000004,12.941250000000002,20.090000000000003,-0.30634317451037707,-0.07687810581701257,-0.19336451330020463
1745334317.9983559,0.937936,0.028182,0.095404,-50.128750000000004,13.48375,22.531250000000004,-0.30634317451037707,-0.07687810581701257,-0.19336451330020463
1745334318.0031722,1.003206,0.082228,0.071187,-48.965,15.820000000000002,23.423750000000002,-0.30634317451037707,-0.07687810581701257,-0.19336451330020463
1745334318.0080438,1.049383,0.120658,0.092903,-48.151250000000005,16.817500000000003,25.235000000000003,-0.30634317451037707,-0.07687810581701257,-0.19336451330020463
1745334318.0130367,1.039806,0.138104,0.090829,-47.66125,18.54125,25.43625,-0.30634317451037707,-0.07687810581701257,-0.19336451330020463
1745334318.019376,1.039623,0.162382,0.065636,-47.495000000000005,19.60875,25.1825,-0.30634317451037707,-0.07687810581701257,-0.19336451330020463
1745334318.0238621,0.985943,0.117852,0.098942,-47.425000000000004,21.53375,25.646250000000002,-0.30634317451037707,-0.07687810581701257,-0.19336451330020463
1745334318.0287235,1.001132,0.165249,0.033306,-46.92625,21.035000000000004,22.863750000000003,-0.30634317451037707,-0.07687810581701257,-0.19336451330020463
1745334318.0335734,0.964593,0.192699,0.045933,-46.89125000000001,23.668750000000003,21.910000000000004,-0.30634317451037707,-0.07687810581701257,-0.19336451330020463
1745334318.0384498,0.93391,0.125965,0.049288,-46.4975,24.718750000000004,22.067500000000003,-0.30634317451037707,-0.07687810581701257,-0.19336451330020463
1745334318.0433106,0.914878,0.127429,0.034831,-45.666250000000005,25.637500000000003,19.958750000000002,-0.30634317451037707,-0.07687810581701257,-0.19336451330020463
1745334318.051024,0.926712,0.121268,0.038551999999999996,-43.8725,28.647500000000004,17.806250000000002,-0.30634317451037707,-0.07687810581701257,-0.19336451330020463
1745334318.0547838,0.901336,0.10790899999999999,0.043615,-42.910000000000004,29.540000000000003,16.047500000000003,-0.30634317451037707,-0.07687810581701257,-0.19336451330020463
1745334318.0595279,0.881145,0.102419,0.082716,-41.64125000000001,29.00625,14.700000000000001,-0.30634317451037707,-0.07687810581701257,-0.19336451330020463
1745334318.0644794,0.872239,0.087718,0.086437,-40.67875,27.69375,13.457500000000001,-0.30634317451037707,-0.07687810581701257,-0.19336451330020463
1745334318.0693052,0.93269,0.047458,0.10699399999999999,-40.0925,26.643750000000004,11.602500000000001,-0.30634317451037707,-0.07687810581701257,-0.19336451330020463
1745334318.074183,1.033645,0.056486,0.124928,-39.81250000000001,24.797500000000003,9.117500000000001,-0.30634317451037707,-0.07687810581701257,-0.19336451330020463
1745334318.0790706,1.042734,0.013725,0.105042,-40.057500000000005,25.1125,7.192500000000001,-0.30634317451037707,-0.07687810581701257,-0.19336451330020463
1745334318.0850296,0.983259,-0.023058,0.075457,-39.602500000000006,24.63125,2.8000000000000003,-0.30634317451037707,-0.07687810581701257,-0.19336451330020463
1745334318.0894167,0.865468,0.006954,0.00244,-38.088750000000005,23.61625,-3.3862500000000004,-0.30634317451037707,-0.07687810581701257,-0.19336451330020463
1745334318.0942478,0.855586,0.126514,0.023363,-36.321250000000006,24.386250000000004,-9.2925,-0.30634317451037707,-0.07687810581701257,-0.19336451330020463
1745334318.1022327,0.819413,0.068076,0.030012,-34.685,24.42125,-11.165000000000001,-0.30634317451037707,-0.07687810581701257,-0.19336451330020463
1745334318.1055527,0.783057,0.088267,0.022203999999999998,-32.970000000000006,20.6675,-19.2325,-0.30634317451037707,-0.07687810581701257,-0.19336451330020463
1745334318.1104288,0.612989,0.176778,-0.072651,-26.8975,19.67875,-19.1275,-0.30634317451037707,-0.07687810581701257,-0.19336451330020463
1745334318.1162148,0.452254,0.059841,-0.046299,-25.077500000000004,12.582500000000001,-23.54625,-0.30634317451037707,-0.07687810581701257,-0.19336451330020463
1745334318.12053,0.6092069999999999,0.174277,-0.125416,-23.14375,9.485000000000001,-25.427500000000002,-0.30634317451037707,-0.07687810581701257,-0.19336451330020463
1745334318.1251938,0.8367979999999999,0.264069,-0.091195,-22.391250000000003,12.285000000000002,-22.102500000000003,-0.30634317451037707,-0.07687810581701257,-0.19336451330020463
1745334318.130175,0.711077,0.152317,0.024217,-21.7875,10.176250000000001,-17.587500000000002,-0.30634317451037707,-0.07687810581701257,-0.19336451330020463
1745334318.1349883,1.045601,0.099491,0.029707,-20.273750000000003,1.8550000000000002,-19.153750000000002,-0.30634317451037707,-0.07687810581701257,-0.19336451330020463
1745334318.139856,1.0763449999999999,0.157258,-0.15311,-19.740000000000002,0.83125,-22.40875,-0.30634317451037707,-0.07687810581701257,-0.19336451330020463
1745334318.1447692,1.052921,0.140178,0.040382,-20.606250000000003,7.822500000000001,-24.220000000000002,-0.30634317451037707,-0.07687810581701257,-0.19336451330020463
1745334318.1504135,1.102514,0.234484,0.079971,-21.078750000000003,3.08875,-27.37,-0.30634317451037707,-0.07687810581701257,-0.19336451330020463
1745334318.1573148,0.983991,0.295728,0.0025009999999999998,-27.737500000000004,1.1725,-26.27625,-0.30634317451037707,-0.07687810581701257,-0.19336451330020463
1745334318.1607783,0.777323,0.188612,0.143289,-27.737500000000004,1.1725,-26.27625,-0.30634317451037707,-0.07687810581701257,-0.19336451330020463
1745334318.16568,0.838872,0.157868,0.175009,-29.81125,-5.74875,-25.55,-0.30634317451037707,-0.07687810581701257,-0.19336451330020463
1745334318.1705437,1.096353,0.18562299999999998,0.10004,-31.4825,-11.173750000000002,-22.96,-0.2993276819643379,-0.04150833089739842,-0.21178018123355744
1745334318.175354,1.024251,0.145729,0.148535,-33.74,-7.3325000000000005,-19.215000000000003,-0.2993276819643379,-0.04150833089739842,-0.21178018123355744
1745334318.1809518,0.9122549999999999,0.105042,0.185196,-35.77,-10.106250000000001,-16.703750000000003,-0.2993276819643379,-0.04150833089739842,-0.21178018123355744
1745334318.1866028,0.989298,0.152439,0.174887,-40.127500000000005,-14.078750000000001,-17.115000000000002,-0.2993276819643379,-0.04150833089739842,-0.21178018123355744
1745334318.1913426,1.160159,0.15792899999999999,0.162016,-42.175000000000004,-16.345000000000002,-14.892500000000002,-0.2993276819643379,-0.04150833089739842,-0.21178018123355744
1745334318.1962965,1.102758,0.167933,0.147986,-44.6075,-15.767500000000002,-13.825000000000001,-0.2993276819643379,-0.04150833089739842,-0.21178018123355744
1745334318.201102,0.995947,0.173545,0.179889,-46.67250000000001,-15.645000000000001,-12.302500000000002,-0.2993276819643379,-0.04150833089739842,-0.21178018123355744
1745334318.2090955,0.991067,0.19086899999999998,0.160796,-48.0375,-18.06875,-10.246250000000002,-0.2993276819643379,-0.04150833089739842,-0.21178018123355744
1745334318.2125964,1.04371,0.192455,0.163114,-49.80500000000001,-18.8825,-8.26875,-0.2993276819643379,-0.04150833089739842,-0.21178018123355744
1745334318.2191327,1.02236,0.155611,0.14396,-54.3025,-19.477500000000003,-1.7850000000000001,-0.2993276819643379,-0.04150833089739842,-0.21178018123355744
1745334318.2237718,1.029924,0.120536,0.16652999999999998,-56.72625000000001,-19.285,1.60125,-0.2993276819643379,-0.04150833089739842,-0.21178018123355744
1745334318.228724,1.123986,0.111752,0.170678,-59.35125000000001,-19.635,4.6725,-0.2993276819643379,-0.04150833089739842,-0.21178018123355744
1745334318.2335122,1.17425,0.081191,0.157075,-62.300000000000004,-17.981250000000003,8.435,-0.2993276819643379,-0.04150833089739842,-0.21178018123355744
1745334318.2384102,1.059875,0.116205,0.16561499999999998,-65.65125,-15.058750000000002,11.016250000000001,-0.2993276819643379,-0.04150833089739842,-0.21178018123355744
1745334318.243265,0.861808,0.162138,0.185379,-69.22125000000001,-14.21,13.650000000000002,-0.2993276819643379,-0.04150833089739842,-0.21178018123355744
1745334318.249142,0.820084,0.074298,0.226371,-72.1525,-18.016250000000003,17.867500000000003,-0.2993276819643379,-0.04150833089739842,-0.21178018123355744
1745334318.253508,0.9505629999999999,0.094916,0.127002,-74.34875000000001,-23.61625,19.083750000000002,-0.2993276819643379,-0.04150833089739842,-0.21178018123355744
1745334318.2582288,0.908534,0.205204,0.16652999999999998,-76.83375000000001,-22.40875,18.41,-0.2993276819643379,-0.04150833089739842,-0.21178018123355744
1745334318.2644403,0.669231,0.194712,0.074786,-77.25375000000001,-26.45125,18.0425,-0.2993276819643379,-0.04150833089739842,-0.21178018123355744
1745334318.2679875,0.567788,0.19147899999999998,0.059902,-77.49875,-31.123750000000005,18.0425,-0.2993276819643379,-0.04150833089739842,-0.21178018123355744
1745334318.2728763,0.744017,0.190686,-0.055876,-76.41375000000001,-39.57625,15.951250000000002,-0.2993276819643379,-0.04150833089739842,-0.21178018123355744
1745334318.2777605,0.907009,0.038979,-0.091866,-73.9375,-40.713750000000005,14.918750000000001,-0.2993276819643379,-0.04150833089739842,-0.21178018123355744
1745334318.2844152,1.229882,0.016347999999999998,-0.062708,-71.04125,-31.815,11.103750000000002,-0.2993276819643379,-0.04150833089739842,-0.21178018123355744
1745334318.288974,1.091839,0.098393,-0.06222,-70.41125000000001,-27.475,10.03625,-0.2993276819643379,-0.04150833089739842,-0.21178018123355744
1745334318.2938485,0.760304,0.037698,-0.066856,-68.59125,-24.92,8.51375,-0.2993276819643379,-0.04150833089739842,-0.21178018123355744
1745334318.2986846,0.800991,0.095648,-0.063867,-65.50250000000001,-28.848750000000003,5.13625,-0.2993276819643379,-0.04150833089739842,-0.21178018123355744
1745334318.3035703,0.9523929999999999,0.110105,-0.019275999999999998,-62.12500000000001,-31.902500000000003,5.1275,-0.2993276819643379,-0.04150833089739842,-0.21178018123355744
1745334318.308427,1.052372,0.119804,-0.116449,-59.54375,-36.645,4.83875,-0.2993276819643379,-0.04150833089739842,-0.21178018123355744
1745334318.3169708,0.975939,0.052337999999999996,-0.091073,-57.575,-34.48375,4.41,-0.2993276819643379,-0.04150833089739842,-0.21178018123355744
1745334318.3206751,0.905362,0.040199,-0.018605,-54.136250000000004,-36.102500000000006,-6.265000000000001,-0.2993276819643379,-0.04150833089739842,-0.21178018123355744
1745334318.3254888,1.0757349999999999,0.135969,-0.138531,-49.56,-32.06,-8.72375,-0.2993276819643379,-0.04150833089739842,-0.21178018123355744
1745334318.33039,1.044686,0.197457,-0.19611499999999998,-48.947500000000005,-26.153750000000002,-8.33,-0.2993276819643379,-0.04150833089739842,-0.21178018123355744
1745334318.335259,0.9204289999999999,0.062586,-0.084485,-46.27875,-26.180000000000003,-12.197500000000002,-0.2993276819643379,-0.04150833089739842,-0.21178018123355744
1745334318.3401198,0.982588,0.027938,-0.196786,-43.408750000000005,-26.792500000000004,-17.115000000000002,-0.2993276819643379,-0.04150833089739842,-0.21178018123355744
1745334318.346005,1.096231,0.025254,-0.156709,-41.965,-19.64375,-12.59125,-0.2993276819643379,-0.04150833089739842,-0.21178018123355744
1745334318.3506835,1.039501,0.052643,-0.063135,-40.24125,-15.435000000000002,-12.99375,-0.2993276819643379,-0.04150833089739842,-0.21178018123355744
1745334318.3552215,0.944219,0.061366,-0.11699799999999999,-38.377500000000005,-15.872500000000002,-14.927500000000002,-0.2993276819643379,-0.04150833089739842,-0.21178018123355744
1745334318.3600848,1.0781749999999999,0.086376,-0.085827,-36.268750000000004,-15.338750000000001,-13.807500000000001,-0.2993276819643379,-0.04150833089739842,-0.21178018123355744
1745334318.364939,1.229272,0.040443,-0.155306,-34.39625,-15.995000000000001,-11.33125,-0.2993276819643379,-0.04150833089739842,-0.21178018123355744
1745334318.371882,1.157414,0.109495,-0.162504,-33.24125,-9.843750000000002,-9.432500000000001,-0.31306635486699796,-0.014615609470914937,-0.18897983045893013
1745334318.3751826,0.984723,0.044347,-0.033245,-32.243750000000006,-4.19125,-9.432500000000001,-0.31306635486699796,-0.014615609470914937,-0.18897983045893013
1745334318.3818035,0.981246,0.075274,-0.046665,-30.800000000000004,-6.492500000000001,-10.613750000000001,-0.31306635486699796,-0.014615609470914937,-0.18897983045893013
1745334318.3854983,1.018456,0.07710399999999999,-0.1464,-29.802500000000002,-6.8425,-10.412500000000001,-0.31306635486699796,-0.014615609470914937,-0.18897983045893013
1745334318.3902433,0.99308,0.066246,-0.1159,-29.435000000000002,-2.2662500000000003,-9.703750000000001,-0.31306635486699796,-0.014615609470914937,-0.18897983045893013
1745334318.3951926,0.948062,0.026108,-0.117059,-28.630000000000003,0.7175,-9.703750000000001,-0.31306635486699796,-0.014615609470914937,-0.18897983045893013
1745334318.3999913,0.972401,0.037515,-0.122732,-27.142500000000002,2.5900000000000003,-7.665000000000001,-0.31306635486699796,-0.014615609470914937,-0.18897983045893013
1745334318.4048789,0.97661,-0.125294,-0.127978,-21.892500000000002,4.768750000000001,-5.5475,-0.31306635486699796,-0.014615609470914937,-0.18897983045893013
1745334318.4097533,1.007476,-0.533445,-0.290238,-15.295000000000002,8.56625,-10.1325,-0.31306635486699796,-0.014615609470914937,-0.18897983045893013
1745334318.4156816,1.098488,0.14823,0.096258,-16.98375,21.472500000000004,-6.2125,-0.31306635486699796,-0.014615609470914937,-0.18897983045893013
1745334318.4199004,0.955199,0.054655999999999996,0.08113,-18.812500000000004,19.425,-4.585000000000001,-0.31306635486699796,-0.014615609470914937,-0.18897983045893013
1745334318.4263282,1.003633,-0.072285,-0.184647,-17.1325,8.435,-2.2750000000000004,-0.31306635486699796,-0.014615609470914937,-0.18897983045893013
1745334318.4298341,0.973621,0.148413,-0.08052,-16.047500000000003,13.037500000000001,-3.6400000000000006,-0.31306635486699796,-0.014615609470914937,-0.18897983045893013
1745334318.4346664,0.924577,0.146583,-0.051362,-16.14375,12.4075,-1.8987500000000002,-0.31306635486699796,-0.014615609470914937,-0.18897983045893013
1745334318.4395518,0.966911,0.071431,-0.064538,-15.802500000000002,10.281250000000002,-1.65375,-0.31306635486699796,-0.014615609470914937,-0.18897983045893013
1745334318.444932,0.965874,0.014761999999999999,-0.06831999999999999,-14.883750000000001,10.5875,-2.1612500000000003,-0.31306635486699796,-0.014615609470914937,-0.18897983045893013
1745334318.4517727,0.981185,0.08723,-0.037942,-14.052500000000002,11.873750000000001,-3.43875,-0.31306635486699796,-0.014615609470914937,-0.18897983045893013
1745334318.4565082,0.958737,0.069235,-0.0059169999999999995,-13.755,10.123750000000001,-4.01625,-0.31306635486699796,-0.014615609470914937,-0.18897983045893013
1745334318.4614468,1.017541,0.042761,-0.010919,-13.755,10.080000000000002,-4.5062500000000005,-0.31306635486699796,-0.014615609470914937,-0.18897983045893013
1745334318.466301,1.0729899999999999,0.060816999999999996,0.003355,-13.912500000000001,11.383750000000001,-3.9112500000000003,-0.31306635486699796,-0.014615609470914937,-0.18897983045893013
1745334318.4711199,1.07055,0.044407999999999996,0.016226,-13.851250000000002,11.436250000000001,-3.6225000000000005,-0.31306635486699796,-0.014615609470914937,-0.18897983045893013
1745334318.482775,1.04432,0.026657,0.026352,-13.842500000000001,11.22625,-3.1325000000000003,-0.31306635486699796,-0.014615609470914937,-0.18897983045893013
1745334318.4889011,1.0374269999999999,0.048312,0.058377,-13.7375,11.523750000000001,-1.39125,-0.31306635486699796,-0.014615609470914937,-0.18897983045893013
1745334318.4928222,1.024251,0.041114,0.078141,-13.7725,11.392500000000002,-1.39125,-0.31306635486699796,-0.014615609470914937,-0.18897983045893013
1745334318.497694,1.014857,0.071431,0.008784,-13.6675,9.196250000000001,-0.6737500000000001,-0.31306635486699796,-0.014615609470914937,-0.18897983045893013
1745334318.5025563,0.964898,0.187148,0.009577,-15.102500000000001,9.54625,0.07875000000000001,-0.31306635486699796,-0.014615609470914937,-0.18897983045893013
1745334318.5074406,0.892369,0.174155,0.080886,-16.887500000000003,8.828750000000001,1.0762500000000002,-0.31306635486699796,-0.014615609470914937,-0.18897983045893013
1745334318.5130177,0.978928,0.198921,-0.047885,-17.96375,3.9637500000000006,0.10500000000000001,-0.31306635486699796,-0.014615609470914937,-0.18897983045893013
1745334318.5183318,0.841556,0.172508,0.017811999999999998,-21.02625,-0.0175,-1.3562500000000002,-0.31306635486699796,-0.014615609470914937,-0.18897983045893013
1745334318.5229812,0.87657,0.18531799999999998,-0.008113,-22.067500000000003,-4.59375,-2.77375,-0.31306635486699796,-0.014615609470914937,-0.18897983045893013
1745334318.5279124,0.9058499999999999,0.147193,-0.043737,-23.03,-8.207500000000001,-3.7012500000000004,-0.31306635486699796,-0.014615609470914937,-0.18897983045893013
1745334318.532702,0.936533,0.14213,-0.056608,-23.423750000000002,-11.13,-5.005000000000001,-0.31306635486699796,-0.014615609470914937,-0.18897983045893013
1745334318.5407825,0.949831,0.124745,-0.047824,-23.633750000000003,-13.6675,-5.78375,-0.31306635486699796,-0.014615609470914937,-0.18897983045893013
1745334318.5443919,0.9849669999999999,0.119865,-0.0549,-23.54625,-16.94,-6.39625,-0.31306635486699796,-0.014615609470914937,-0.18897983045893013
1745334318.5506463,1.020713,0.078019,-0.016836,-23.117500000000003,-18.8475,-6.195,-0.31306635486699796,-0.014615609470914937,-0.18897983045893013
1745334318.5552816,1.047065,0.111203,0.006222,-23.17,-18.90875,-5.433750000000001,-0.31306635486699796,-0.014615609470914937,-0.18897983045893013
1745334318.5601654,1.045296,0.0915,0.049044,-23.61625,-18.62875,-3.9025000000000003,-0.31306635486699796,-0.014615609470914937,-0.18897983045893013
1745334318.5650024,1.069635,0.09516,0.041479999999999996,-24.2375,-19.005000000000003,-3.0362500000000003,-0.3241742180648933,0.0040923706518561824,-0.18941829874305757
1745334318.5698898,1.0796999999999999,0.092232,0.057096,-25.060000000000002,-17.535,-1.5575,-0.3241742180648933,0.0040923706518561824,-0.18941829874305757
1745334318.5747514,1.096048,0.10437099999999999,0.080764,-26.1625,-16.301250000000003,-0.07,-0.3241742180648933,0.0040923706518561824,-0.18941829874305757
1745334318.580329,1.083848,0.105347,0.089792,-27.448750000000004,-15.566250000000002,1.05875,-0.3241742180648933,0.0040923706518561824,-0.18941829874305757
1745334318.5849347,1.0426119999999999,0.114924,0.121817,-28.63875,-14.752500000000001,1.77625,-0.3241742180648933,0.0040923706518561824,-0.18941829874305757
1745334318.5896778,1.014125,0.107055,0.095648,-29.548750000000002,-15.968750000000002,2.345,-0.3241742180648933,0.0040923706518561824,-0.18941829874305757
1745334318.5960853,1.006866,0.083814,0.095465,-30.432500000000005,-16.240000000000002,2.3625000000000003,-0.3241742180648933,0.0040923706518561824,-0.18941829874305757
1745334318.599416,1.001437,0.07649399999999999,0.08784,-30.922500000000003,-16.975,2.0300000000000002,-0.3241742180648933,0.0040923706518561824,-0.18941829874305757
1745334318.6043239,1.000156,0.072285,0.087718,-30.870000000000005,-18.497500000000002,1.4612500000000002,-0.3241742180648933,0.0040923706518561824,-0.18941829874305757
1745334318.609187,1.00833,0.047945999999999996,0.061426999999999995,-30.336250000000003,-20.378750000000004,2.1437500000000003,-0.3241742180648933,0.0040923706518561824,-0.18941829874305757
1745334318.6153054,1.035109,0.037637,0.05978,-29.653750000000002,-21.376250000000002,2.6162500000000004,-0.3241742180648933,0.0040923706518561824,-0.18941829874305757
1745334318.6192114,1.066585,0.029219,0.06709999999999999,-28.735000000000003,-22.802500000000002,2.6162500000000004,-0.3241742180648933,0.0040923706518561824,-0.18941829874305757
1745334318.6240337,1.103124,0.021533,0.061975999999999996,-27.798750000000002,-24.473750000000003,2.9400000000000004,-0.3241742180648933,0.0040923706518561824,-0.18941829874305757
1745334318.628968,1.095621,0.020984,0.069845,-27.125000000000004,-25.532500000000002,2.9487500000000004,-0.3241742180648933,0.0040923706518561824,-0.18941829874305757
1745334318.6338005,1.092449,0.021716,0.08113,-26.696250000000003,-27.020000000000003,3.08,-0.3241742180648933,0.0040923706518561824,-0.18941829874305757
1745334318.6386652,1.086776,0.037332,0.068442,-26.46,-29.575000000000003,3.535,-0.3241742180648933,0.0040923706518561824,-0.18941829874305757
1745334318.6438193,1.089094,0.049044,0.08356999999999999,-26.6,-30.415000000000003,3.8150000000000004,-0.3241742180648933,0.0040923706518561824,-0.18941829874305757
1745334318.65714,1.066768,0.077165,0.06831999999999999,-27.606250000000003,-29.575000000000003,3.3075,-0.3241742180648933,0.0040923706518561824,-0.18941829874305757
1745334318.6607757,1.064023,0.09113399999999999,0.093818,-28.455000000000002,-29.653750000000002,2.2225,-0.3241742180648933,0.0040923706518561824,-0.18941829874305757
1745334318.665515,1.084092,0.101382,0.099735,-29.216250000000002,-29.95125,1.54,-0.3241742180648933,0.0040923706518561824,-0.18941829874305757
1745334318.6704106,1.10776,0.09467199999999999,0.107238,-30.073750000000004,-29.977500000000003,0.49875,-0.3241742180648933,0.0040923706518561824,-0.18941829874305757
1745334318.675283,1.120814,0.094489,0.111203,-30.957500000000003,-29.618750000000002,-0.5337500000000001,-0.3241742180648933,0.0040923706518561824,-0.18941829874305757
1745334318.6811135,1.124901,0.088572,0.108946,-31.972500000000004,-29.960000000000004,-1.11125,-0.3241742180648933,0.0040923706518561824,-0.18941829874305757
1745334318.6853335,1.106052,0.076982,0.084851,-32.85625,-30.520000000000003,-0.42875,-0.3241742180648933,0.0040923706518561824,-0.18941829874305757
1745334318.6901047,1.108492,0.060756,0.07442,-35.691250000000004,-31.351250000000004,0.6212500000000001,-0.3241742180648933,0.0040923706518561824,-0.18941829874305757
1745334318.694999,1.138809,0.04575,0.047458,-34.151250000000005,-31.080000000000002,1.6625,-0.3241742180648933,0.0040923706518561824,-0.18941829874305757
1745334318.699879,1.162721,0.0305,0.046176999999999996,-34.728750000000005,-30.887500000000003,2.8175000000000003,-0.3241742180648933,0.0040923706518561824,-0.18941829874305757
1745334318.7047405,1.165893,0.017811999999999998,0.062952,-35.533750000000005,-30.213750000000005,3.9025000000000003,-0.3241742180648933,0.0040923706518561824,-0.18941829874305757
1745334318.7129056,1.164185,0.018178,0.07564,-36.7325,-30.415000000000003,5.031250000000001,-0.3241742180648933,0.0040923706518561824,-0.18941829874305757
1745334318.7170205,1.1529,0.022692,0.081374,-38.298750000000005,-30.056250000000002,6.361250000000001,-0.3241742180648933,0.0040923706518561824,-0.18941829874305757
1745334318.7219148,1.145885,0.007137,0.082838,-40.040000000000006,-30.441250000000004,7.192500000000001,-0.3241742180648933,0.0040923706518561824,-0.18941829874305757
1745334318.726693,1.2184139999999999,0.11669299999999999,0.121878,-41.9825,-29.81125,7.0875,-0.3241742180648933,0.0040923706518561824,-0.18941829874305757
1745334318.7315881,1.210118,0.127917,0.096685,-43.67125000000001,-29.216250000000002,7.51625,-0.3241742180648933,0.0040923706518561824,-0.18941829874305757
1745334318.7364593,1.108919,0.110959,0.11102,-44.791250000000005,-27.098750000000003,7.5512500000000005,-0.3241742180648933,0.0040923706518561824,-0.18941829874305757
1745334318.7424505,1.079883,0.105469,0.105835,-46.23500000000001,-27.387500000000003,7.5425,-0.3241742180648933,0.0040923706518561824,-0.18941829874305757
1745334318.7467847,1.153876,0.151951,0.086376,-46.602500000000006,-25.051250000000003,7.892500000000001,-0.3241742180648933,0.0040923706518561824,-0.18941829874305757
1745334318.7514563,1.096292,0.16994599999999999,0.105286,-47.416250000000005,-24.2025,9.686250000000001,-0.3241742180648933,0.0040923706518561824,-0.18941829874305757
1745334318.7563586,1.090253,0.086132,0.085644,-47.97625000000001,-23.54625,10.561250000000001,-0.3241742180648933,0.0040923706518561824,-0.18941829874305757
1745334318.7643538,1.087203,0.088999,0.067954,-48.501250000000006,-20.55375,10.342500000000001,-0.3458053200818474,0.024846536100555393,-0.16501023092662964
1745334318.7679245,1.070428,0.057523,0.069906,-49.28875000000001,-17.1675,11.095,-0.3458053200818474,0.024846536100555393,-0.16501023092662964
1745334318.7741573,1.054446,0.040382,0.058377,-50.758750000000006,-14.901250000000001,12.801250000000001,-0.3458053200818474,0.024846536100555393,-0.16501023092662964
1745334318.7787304,1.059875,0.031171,0.058072,-51.861250000000005,-13.02875,13.763750000000002,-0.3458053200818474,0.024846536100555393,-0.16501023092662964
1745334318.7836473,1.058533,0.00732,0.061549,-55.361250000000005,-10.2375,14.787500000000001,-0.3458053200818474,0.024846536100555393,-0.16501023092662964
1745334318.7884438,1.068537,-0.008235,0.059292,-55.956250000000004,-9.266250000000001,16.126250000000002,-0.3458053200818474,0.024846536100555393,-0.16501023092662964
1745334318.7933362,1.0879349999999999,-0.039772,0.065331,-57.08500000000001,-8.277500000000002,17.1325,-0.3458053200818474,0.024846536100555393,-0.16501023092662964
1745334318.7982035,1.091839,-0.059719,0.073749,-57.93375,-7.463750000000001,17.89375,-0.3458053200818474,0.024846536100555393,-0.16501023092662964
1745334318.8040664,1.042734,-0.105957,0.072651,-58.633750000000006,-6.991250000000001,18.41,-0.3458053200818474,0.024846536100555393,-0.16501023092662964
1745334318.808344,1.020347,-0.112301,0.079239,-59.185,-7.236250000000001,18.2175,-0.3458053200818474,0.024846536100555393,-0.16501023092662964
1745334318.813025,0.980941,-0.13511499999999999,0.053985,-59.24625,-7.9975000000000005,17.89375,-0.3458053200818474,0.024846536100555393,-0.16501023092662964
1745334318.8197255,0.955321,-0.132675,0.049104999999999996,-59.11500000000001,-8.023750000000001,16.51125,-0.3458053200818474,0.024846536100555393,-0.16501023092662964
1745334318.823179,0.939827,-0.116022,0.003111,-58.76500000000001,-8.592500000000001,15.137500000000001,-0.3458053200818474,0.024846536100555393,-0.16501023092662964
1745334318.8280733,0.891881,-0.127612,-0.035623999999999996,-58.0125,-8.5225,13.790000000000001,-0.3458053200818474,0.024846536100555393,-0.16501023092662964
1745334318.8329847,0.8471069999999999,-0.139629,-0.045566999999999996,-56.50750000000001,-7.708750000000001,12.8975,-0.3458053200818474,0.024846536100555393,-0.16501023092662964
1745334318.838767,0.844301,-0.084302,-0.046665,-54.87125,-8.207500000000001,11.138750000000002,-0.3458053200818474,0.024846536100555393,-0.16501023092662964
1745334318.8431044,0.823561,-0.098759,-0.073688,-53.29625000000001,-9.98375,10.745000000000001,-0.3458053200818474,0.024846536100555393,-0.16501023092662964
1745334318.8479316,0.733159,-0.000244,-0.086742,-51.633750000000006,-11.270000000000001,7.481250000000001,-0.3458053200818474,0.024846536100555393,-0.16501023092662964
1745334318.8531547,0.7065629999999999,-0.0066489999999999995,-0.130235,-50.02375000000001,-13.755,6.6850000000000005,-0.3458053200818474,0.024846536100555393,-0.16501023092662964
1745334318.8576837,0.73688,-0.046299,-0.111996,-47.792500000000004,-16.336250000000003,5.55625,-0.3458053200818474,0.024846536100555393,-0.16501023092662964
1745334318.8625388,0.912987,-0.038613,-0.121512,-44.975,-19.801250000000003,2.6775,-0.3458053200818474,0.024846536100555393,-0.16501023092662964
1745334318.8680594,0.868518,0.069601,-0.12315899999999999,-43.82000000000001,-19.17125,1.39125,-0.3458053200818474,0.024846536100555393,-0.16501023092662964
1745334318.87397,0.87169,-0.050325,-0.1403,-41.510000000000005,-23.782500000000002,-0.026250000000000002,-0.3458053200818474,0.024846536100555393,-0.16501023092662964
1745334318.878177,0.865407,-0.019093,-0.13047899999999998,-40.97625000000001,-23.371250000000003,-1.12,-0.3458053200818474,0.024846536100555393,-0.16501023092662964
1745334318.8830018,0.8781559999999999,-0.015982,-0.075579,-41.18625,-23.222500000000004,-2.09125,-0.3458053200818474,0.024846536100555393,-0.16501023092662964
1745334318.887893,0.886879,-0.028975,-0.068869,-41.545,-23.931250000000002,-2.10875,-0.3458053200818474,0.024846536100555393,-0.16501023092662964
1745334318.8927627,0.866444,-0.030439,-0.048312,-42.227500000000006,-23.31875,-2.8087500000000003,-0.3458053200818474,0.024846536100555393,-0.16501023092662964
1745334318.8983505,0.941169,-0.047885,-0.03965,-42.822500000000005,-22.347500000000004,-3.5262500000000006,-0.3458053200818474,0.024846536100555393,-0.16501023092662964
1745334318.902733,0.9272,-0.030866,-0.0017079999999999999,-43.51375,-20.055000000000003,-3.1500000000000004,-0.3458053200818474,0.024846536100555393,-0.16501023092662964
1745334318.9074814,0.9384239999999999,-0.021716,0.0028669999999999998,-44.31875,-19.71375,-2.2225,-0.3458053200818474,0.024846536100555393,-0.16501023092662964
1745334318.9124284,0.913902,-0.053985,0.01098,-45.307500000000005,-18.278750000000002,-0.8662500000000001,-0.3458053200818474,0.024846536100555393,-0.16501023092662964
1745334318.9172223,0.897859,-0.048922,0.029768,-46.112500000000004,-17.578750000000003,-0.35000000000000003,-0.3458053200818474,0.024846536100555393,-0.16501023092662964
1745334318.925081,0.915488,-0.06649,0.010187,-46.64625,-18.086250000000003,-0.11375000000000002,-0.3458053200818474,0.024846536100555393,-0.16501023092662964
1745334318.928587,0.954589,-0.072773,0.010309,-47.048750000000005,-17.876250000000002,-0.43750000000000006,-0.3458053200818474,0.024846536100555393,-0.16501023092662964
1745334318.9346075,0.912987,-0.085949,0.000183,-47.59125,-18.515,-0.77,-0.3458053200818474,0.024846536100555393,-0.16501023092662964
1745334318.9391274,0.892918,-0.08479,-0.022875,-47.24125000000001,-19.17125,-0.8575,-0.3458053200818474,0.024846536100555393,-0.16501023092662964
1745334318.9440012,0.922015,-0.07387099999999999,-0.045994,-46.760000000000005,-19.775000000000002,-0.88375,-0.3458053200818474,0.024846536100555393,-0.16501023092662964
1745334318.9488595,0.951966,-0.056364,-0.065453,-45.93750000000001,-19.635,-0.8662500000000001,-0.3458053200818474,0.024846536100555393,-0.16501023092662964
1745334318.953737,0.945866,-0.055693,-0.046482,-45.001250000000006,-18.672500000000003,-0.35875,-0.3458053200818474,0.024846536100555393,-0.16501023092662964
1745334318.9585986,0.9508679999999999,-0.07259,-0.04758,-43.93375,-18.865000000000002,0.17500000000000002,-0.3683133586670564,0.07132417421806489,-0.11940952937737503
1745334318.9640667,0.9733769999999999,-0.086925,-0.022875,-43.015,-18.80375,-0.45500000000000007,-0.3683133586670564,0.07132417421806489,-0.11940952937737503
1745334318.9688482,0.975634,-0.07972699999999999,-0.01952,-42.84,-18.060000000000002,-0.5687500000000001,-0.3683133586670564,0.07132417421806489,-0.11940952937737503
1745334318.973494,0.960079,-0.090036,-0.0023179999999999997,-43.1375,-17.176250000000003,-0.8225000000000001,-0.3683133586670564,0.07132417421806489,-0.11940952937737503
1745334318.980093,0.940376,-0.08619299999999999,0.024583,-43.548750000000005,-16.47625,0.9887500000000001,-0.3683133586670564,0.07132417421806489,-0.11940952937737503
1745334318.9833746,0.955199,-0.101626,0.018971,-43.548750000000005,-16.47625,0.9887500000000001,-0.3683133586670564,0.07132417421806489,-0.11940952937737503
1745334318.9883008,0.953857,-0.080459,0.020923,-43.79375,-15.583750000000002,1.65375,-0.3683133586670564,0.07132417421806489,-0.11940952937737503
1745334318.993169,0.931287,-0.073505,0.043676,-43.995000000000005,-14.726250000000002,3.8587500000000006,-0.3683133586670564,0.07132417421806489,-0.11940952937737503
1745334318.9988441,0.951661,-0.074359,0.045506,-44.4675,-14.39375,8.74125,-0.3683133586670564,0.07132417421806489,-0.11940952937737503
1745334319.0031848,0.9478179999999999,-0.044286,0.056913,-45.10625,-14.39375,11.471250000000001,-0.3683133586670564,0.07132417421806489,-0.11940952937737503
1745334319.0079885,0.926712,-0.065514,0.055693,-45.876250000000006,-16.3275,13.92125,-0.3683133586670564,0.07132417421806489,-0.11940952937737503
1745334319.0128427,0.957944,-0.077714,0.038979,-47.95875,-16.905,16.065,-0.3683133586670564,0.07132417421806489,-0.11940952937737503
1745334319.0177393,0.949526,-0.043493,0.045018,-49.1925,-18.62,18.856250000000003,-0.3683133586670564,0.07132417421806489,-0.11940952937737503
1745334319.0226064,0.920551,-0.076616,0.022692,-50.21625,-20.72875,19.565,-0.3683133586670564,0.07132417421806489,-0.11940952937737503
1745334319.0283928,0.900726,-0.099735,-0.00183,-51.441250000000004,-22.155,19.582500000000003,-0.3683133586670564,0.07132417421806489,-0.11940952937737503
1745334319.034031,0.891515,-0.07326099999999999,0.001952,-52.587500000000006,-23.3625,19.6,-0.3683133586670564,0.07132417421806489,-0.11940952937737503
1745334319.0375283,0.863638,-0.074115,-0.023912,-53.55875,-25.06875,20.335,-0.3683133586670564,0.07132417421806489,-0.11940952937737503
1745334319.0424461,0.8328329999999999,-0.065941,-0.050386,-54.206250000000004,-26.1975,20.501250000000002,-0.3683133586670564,0.07132417421806489,-0.11940952937737503
1745334319.0472858,0.853024,-0.08906,-0.067161,-54.46000000000001,-25.9875,20.51,-0.3683133586670564,0.07132417421806489,-0.11940952937737503
1745334319.0521595,0.8559519999999999,-0.066917,-0.075884,-54.29375,-25.751250000000002,19.740000000000002,-0.3683133586670564,0.07132417421806489,-0.11940952937737503
1745334319.0572379,0.852719,-0.042943999999999996,-0.09406199999999999,-53.99625,-25.515000000000004,19.60875,-0.3683133586670564,0.07132417421806489,-0.11940952937737503
1745334319.0625312,0.832894,-0.033854999999999996,-0.101992,-53.88250000000001,-24.508750000000003,19.740000000000002,-0.3683133586670564,0.07132417421806489,-0.11940952937737503
1745334319.0670116,0.863699,-0.038979,-0.075152,-53.5675,-24.22875,18.515,-0.3683133586670564,0.07132417421806489,-0.11940952937737503
1745334319.0718834,0.866261,-0.032635,-0.115839,-53.12125,-24.885,16.2575,-0.3683133586670564,0.07132417421806489,-0.11940952937737503
1745334319.076754,0.832711,0.037332,-0.14926699999999998,-52.736250000000005,-23.38875,13.50125,-0.3683133586670564,0.07132417421806489,-0.11940952937737503
1745334319.0816486,0.797514,0.036234,-0.124379,-52.34250000000001,-23.371250000000003,11.506250000000001,-0.3683133586670564,0.07132417421806489,-0.11940952937737503
1745334319.087245,0.770125,0.078507,-0.218441,-52.41250000000001,-19.39,7.166250000000001,-0.3683133586670564,0.07132417421806489,-0.11940952937737503
1745334319.091904,0.717299,0.129381,-0.244061,-53.36625000000001,-18.777500000000003,7.166250000000001,-0.3683133586670564,0.07132417421806489,-0.11940952937737503
1745334319.097159,0.7759199999999999,0.052032999999999996,-0.220881,-56.43750000000001,-17.990000000000002,-0.5425000000000001,-0.3683133586670564,0.07132417421806489,-0.11940952937737503
1745334319.101785,0.718702,0.107421,-0.261202,-57.408750000000005,-18.22625,-6.39625,-0.3683133586670564,0.07132417421806489,-0.11940952937737503
1745334319.1067204,0.690825,0.080703,-0.29670399999999997,-58.66875,-16.61625,-12.0225,-0.3683133586670564,0.07132417421806489,-0.11940952937737503
1745334319.1115098,0.965508,0.16287,-0.346236,-59.508750000000006,-20.798750000000002,-15.513750000000002,-0.3683133586670564,0.07132417421806489,-0.11940952937737503
1745334319.116408,0.914329,-0.24912399999999998,-0.441396,-59.71875000000001,-22.828750000000003,-11.033750000000001,-0.3683133586670564,0.07132417421806489,-0.11940952937737503
1745334319.1212738,0.977464,-0.084302,-0.41595899999999997,-55.728750000000005,-13.93875,-17.9725,-0.3683133586670564,0.07132417421806489,-0.11940952937737503
1745334319.1270075,1.02358,0.11840099999999999,-0.31232,-53.252500000000005,-3.9375000000000004,-19.10125,-0.3683133586670564,0.07132417421806489,-0.11940952937737503
1745334319.1312954,0.946354,-0.014335,-0.338123,-54.90625000000001,-8.338750000000001,-12.477500000000001,-0.3683133586670564,0.07132417421806489,-0.11940952937737503
1745334319.139068,0.913231,-0.08784,-0.394853,-52.386250000000004,-15.575000000000001,-9.502500000000001,-0.3683133586670564,0.07132417421806489,-0.11940952937737503
1745334319.1424289,1.1788859999999999,-0.322446,-0.8532069999999999,-47.206250000000004,-20.9125,-8.8375,-0.3683133586670564,0.07132417421806489,-0.11940952937737503
1745334319.1473024,1.112701,0.294691,-0.519415,-31.237500000000004,-38.220000000000006,4.8825,-0.3683133586670564,0.07132417421806489,-0.11940952937737503
1745334319.152365,1.587159,0.166408,-0.069357,-30.75625,-15.986250000000002,-4.6025,-0.3683133586670564,0.07132417421806489,-0.11940952937737503
1745334319.1581233,0.777567,-0.060146,-0.25498,-28.183750000000003,-41.501250000000006,4.41875,-0.38819058754750074,0.10523238819058754,-0.058754750073078045
1745334319.1622412,0.850584,0.006039,-0.219722,-25.94375,-42.813750000000006,5.022500000000001,-0.38819058754750074,0.10523238819058754,-0.058754750073078045
1745334319.1670837,1.020469,0.009882,-0.204777,-24.648750000000003,-44.852500000000006,3.4125000000000005,-0.38819058754750074,0.10523238819058754,-0.058754750073078045
1745334319.171969,1.461255,0.094489,-0.164822,-24.911250000000003,-42.9975,2.02125,-0.38819058754750074,0.10523238819058754,-0.058754750073078045
1745334319.1768403,1.253123,0.0013419999999999999,-0.127246,-23.72125,-36.540000000000006,-1.3475000000000001,-0.38819058754750074,0.10523238819058754,-0.058754750073078045
1745334319.1816964,0.965935,-0.013115,-0.182939,-21.35,-37.651250000000005,-1.44375,-0.38819058754750074,0.10523238819058754,-0.058754750073078045
1745334319.186947,1.044869,-0.018971,-0.255346,-20.0025,-36.53125,-0.525,-0.38819058754750074,0.10523238819058754,-0.058754750073078045
1745334319.194325,1.047919,-0.013542,-0.203984,-18.655,-32.970000000000006,-0.6562500000000001,-0.38819058754750074,0.10523238819058754,-0.058754750073078045
1745334319.1981568,1.061583,-0.01647,-0.183671,-17.66625,-31.246250000000003,0.30625,-0.38819058754750074,0.10523238819058754,-0.058754750073078045
1745334319.2031035,1.097939,-0.024461,-0.163358,-16.975,-31.543750000000003,0.7000000000000001,-0.38819058754750074,0.10523238819058754,-0.058754750073078045
1745334319.2079067,1.144482,-0.037576,-0.237656,-16.598750000000003,-32.305,1.155,-0.38819058754750074,0.10523238819058754,-0.058754750073078045
1745334319.2127893,1.075186,-0.121817,-0.262483,-17.08875,-29.6975,2.21375,-0.38819058754750074,0.10523238819058754,-0.058754750073078045
1745334319.217653,0.87962,-0.12163399999999999,-0.30445099999999997,-17.15875,-28.157500000000002,3.6575,-0.38819058754750074,0.10523238819058754,-0.058754750073078045
1745334319.2235975,0.700768,-0.077836,-0.28316199999999997,-14.166250000000002,-30.222500000000004,4.2525,-0.38819058754750074,0.10523238819058754,-0.058754750073078045
1745334319.2276628,1.172725,-0.068625,-0.206729,-14.166250000000002,-34.588750000000005,3.8937500000000003,-0.38819058754750074,0.10523238819058754,-0.058754750073078045
1745334319.232453,1.732522,-0.00122,-0.305305,-13.352500000000001,-24.955000000000002,8.09375,-0.38819058754750074,0.10523238819058754,-0.058754750073078045
1745334319.2373736,1.198528,0.030987999999999998,-0.426329,-13.387500000000001,-14.035000000000002,16.275000000000002,-0.38819058754750074,0.10523238819058754,-0.058754750073078045
1745334319.2422235,0.595055,-0.12017,-0.072773,-11.593750000000002,-26.635,15.0325,-0.38819058754750074,0.10523238819058754,-0.058754750073078045
1745334319.2478724,1.752713,0.105835,-0.045933,-12.8625,-28.008750000000003,13.615000000000002,-0.38819058754750074,0.10523238819058754,-0.058754750073078045
1745334319.2521036,1.638155,0.089914,-0.018117,-15.478750000000002,-18.900000000000002,13.125000000000002,-0.38819058754750074,0.10523238819058754,-0.058754750073078045
1745334319.2576466,1.016565,-0.032452,0.003538,-16.275000000000002,-11.217500000000001,12.99375,-0.38819058754750074,0.10523238819058754,-0.058754750073078045
1745334319.2622466,0.892674,0.050263999999999996,0.030073,-15.0675,-10.290000000000001,8.0675,-0.38819058754750074,0.10523238819058754,-0.058754750073078045
1745334319.2670884,1.198772,0.193065,-0.135908,-14.017500000000002,-6.86,6.62375,-0.38819058754750074,0.10523238819058754,-0.058754750073078045
1745334319.271953,1.30296,0.086925,-0.011163,-14.857500000000002,4.2700000000000005,11.5675,-0.38819058754750074,0.10523238819058754,-0.058754750073078045
1745334319.2768333,1.194868,0.016409,-0.02196,-13.693750000000001,8.25125,13.3,-0.38819058754750074,0.10523238819058754,-0.058754750073078045
1745334319.2816842,1.1346,0.028853,-0.061793,-11.8825,10.718750000000002,9.738750000000001,-0.38819058754750074,0.10523238819058754,-0.058754750073078045
1745334319.2869246,1.164917,0.049471,-0.083448,-9.73,13.95625,7.927500000000001,-0.38819058754750074,0.10523238819058754,-0.058754750073078045
1745334319.2924728,1.220671,0.040382,-0.086559,-7.682500000000001,15.715000000000002,7.428750000000001,-0.38819058754750074,0.10523238819058754,-0.058754750073078045
1745334319.299939,1.202249,0.031781,-0.061121999999999996,-5.76625,18.453750000000003,6.4750000000000005,-0.38819058754750074,0.10523238819058754,-0.058754750073078045
1745334319.3035865,1.185657,-0.005429,-0.100955,-1.8025000000000002,18.567500000000003,3.4912500000000004,-0.38819058754750074,0.10523238819058754,-0.058754750073078045
1745334319.3083994,1.16876,0.047763,-0.076677,0.16625,17.26375,2.31,-0.38819058754750074,0.10523238819058754,-0.058754750073078045
1745334319.313276,1.1408829999999999,0.041968,-0.131028,1.5225000000000002,16.91375,3.1237500000000002,-0.38819058754750074,0.10523238819058754,-0.058754750073078045
1745334319.318159,1.046028,0.027694,-0.08680299999999999,2.5987500000000003,18.865000000000002,3.8675,-0.38819058754750074,0.10523238819058754,-0.058754750073078045
1745334319.3237514,1.018456,0.034648,-0.108336,4.077500000000001,15.715000000000002,5.0925,-0.38819058754750074,0.10523238819058754,-0.058754750073078045
1745334319.328122,1.072319,0.063806,-0.083875,5.188750000000001,12.906250000000002,6.921250000000001,-0.38819058754750074,0.10523238819058754,-0.058754750073078045
1745334319.3329353,1.132282,0.081801,-0.061915,5.57375,9.87875,8.828750000000001,-0.38819058754750074,0.10523238819058754,-0.058754750073078045
1745334319.3378565,1.080066,0.046787,-0.103334,5.52125,7.682500000000001,9.992500000000001,-0.38819058754750074,0.10523238819058754,-0.058754750073078045
1745334319.3427055,1.003145,0.072529,-0.073139,5.635000000000001,6.361250000000001,8.863750000000001,-0.38819058754750074,0.10523238819058754,-0.058754750073078045
1745334319.347567,0.986126,0.101565,-0.090402,5.76625,3.325,8.4875,-0.38819058754750074,0.10523238819058754,-0.058754750073078045
1745334319.3563423,0.930006,0.098759,-0.133346,5.55625,1.7062500000000003,10.115,-0.3878982753580824,0.11955568547208419,-0.03449283835135925
1745334319.3603983,0.931958,0.125233,-0.105225,5.5125,1.0762500000000002,11.182500000000001,-0.3878982753580824,0.11955568547208419,-0.03449283835135925
1745334319.365175,0.9560529999999999,0.132553,-0.103639,5.0575,-0.39375000000000004,11.75125,-0.3878982753580824,0.11955568547208419,-0.03449283835135925
1745334319.370114,0.9964959999999999,0.133712,-0.070394,4.348750000000001,-1.1987500000000002,12.381250000000001,-0.3878982753580824,0.11955568547208419,-0.03449283835135925
1745334319.3749366,1.019432,0.129381,-0.062952,3.3687500000000004,-2.4062500000000004,11.9875,-0.3878982753580824,0.11955568547208419,-0.03449283835135925
1745334319.3798046,1.043405,0.153354,-0.014823,1.9512500000000002,-3.21125,10.797500000000001,-0.3878982753580824,0.11955568547208419,-0.03449283835135925
1745334319.3848166,1.053592,0.16622499999999998,-0.019642,0.3325,-5.11,9.957500000000001,-0.3878982753580824,0.11955568547208419,-0.03449283835135925
1745334319.3908935,1.061034,0.162565,-0.0023179999999999997,-1.435,-6.125000000000001,9.371250000000002,-0.3878982753580824,0.11955568547208419,-0.03449283835135925
1745334319.3952954,1.053043,0.16652999999999998,-0.000244,-3.1412500000000003,-7.1137500000000005,9.31,-0.3878982753580824,0.11955568547208419,-0.03449283835135925
1745334319.4002137,1.069513,0.156526,-0.008601,-4.69875,-8.18125,9.98375,-0.3878982753580824,0.11955568547208419,-0.03449283835135925
1745334319.408017,1.072502,0.147925,-0.015799,-6.055000000000001,-7.9625,13.133750000000001,-0.3878982753580824,0.11955568547208419,-0.03449283835135925
1745334319.4114501,1.103246,0.11376499999999999,0.000732,-8.4875,-7.000000000000001,13.23,-0.3878982753580824,0.11955568547208419,-0.03449283835135925
1745334319.416327,1.102697,0.101321,0.006039,-9.520000000000001,-6.0025,13.326250000000002,-0.3878982753580824,0.11955568547208419,-0.03449283835135925
1745334319.4220521,1.100745,0.07991,0.017506999999999998,-10.36875,-4.331250000000001,13.886250000000002,-0.3878982753580824,0.11955568547208419,-0.03449283835135925
1745334319.4263444,1.090619,0.069784,0.016042999999999998,-10.902500000000002,-1.93375,13.676250000000001,-0.3878982753580824,0.11955568547208419,-0.03449283835135925
1745334319.4311044,1.082079,0.055570999999999995,0.029646,-11.235000000000001,1.4787500000000002,13.11625,-0.3878982753580824,0.11955568547208419,-0.03449283835135925
1745334319.4360619,1.060241,0.021045,0.034343,-11.165000000000001,5.3375,12.363750000000001,-0.3878982753580824,0.11955568547208419,-0.03449283835135925
1745334319.4408689,0.957334,0.074237,0.032574,-10.648750000000001,9.992500000000001,9.940000000000001,-0.3878982753580824,0.11955568547208419,-0.03449283835135925
1745334319.4457448,1.050115,0.021167,-0.039894,-9.248750000000001,10.797500000000001,12.853750000000002,-0.3878982753580824,0.11955568547208419,-0.03449283835135925
1745334319.4506297,1.05103,-0.026779,0.0018909999999999999,-7.367500000000001,16.703750000000003,12.976250000000002,-0.3878982753580824,0.11955568547208419,-0.03449283835135925
1745334319.456219,1.111542,-0.023424,0.053741,-5.258750000000001,19.258750000000003,11.138750000000002,-0.3878982753580824,0.11955568547208419,-0.03449283835135925
1745334319.4690084,0.989847,-0.053558,-0.007503,-1.49625,23.012500000000003,7.848750000000001,-0.3878982753580824,0.11955568547208419,-0.03449283835135925
1745334319.472273,0.954467,-0.08064199999999999,-0.105408,3.2287500000000002,23.117500000000003,7.927500000000001,-0.3878982753580824,0.11955568547208419,-0.03449283835135925
1745334319.4771545,1.017785,-0.009455,-0.08973099999999999,4.4975000000000005,22.907500000000002,7.9975000000000005,-0.3878982753580824,0.11955568547208419,-0.03449283835135925
1745334319.4820192,1.011746,0.005246,-0.064111,5.52125,24.141250000000003,8.155000000000001,-0.3878982753580824,0.11955568547208419,-0.03449283835135925
1745334319.4880452,0.9739869999999999,-6.1e-05,-0.134932,6.492500000000001,22.5575,8.28625,-0.3878982753580824,0.11955568547208419,-0.03449283835135925
1745334319.4921355,0.8242929999999999,-0.027938,-0.11163,6.64125,23.5375,8.8725,-0.3878982753580824,0.11955568547208419,-0.03449283835135925
1745334319.496834,0.817034,0.013542,-0.110044,7.000000000000001,23.35375,7.525,-0.3878982753580824,0.11955568547208419,-0.03449283835135925
1745334319.5018182,0.89182,0.01769,-0.074542,6.562500000000001,22.505000000000003,6.825000000000001,-0.3878982753580824,0.11955568547208419,-0.03449283835135925
1745334319.5066183,0.9018849999999999,0.025376,-0.093025,6.1775,22.032500000000002,5.643750000000001,-0.3878982753580824,0.11955568547208419,-0.03449283835135925
1745334319.5114985,0.817156,0.042883,-0.06709999999999999,5.398750000000001,22.7325,4.83,-0.3878982753580824,0.11955568547208419,-0.03449283835135925
1745334319.5163834,0.774029,0.047885,-0.071187,4.9,22.548750000000002,4.8825,-0.3878982753580824,0.11955568547208419,-0.03449283835135925
1745334319.5243206,0.7759199999999999,0.078019,-0.029096999999999998,3.7275000000000005,25.69,4.095000000000001,-0.3878982753580824,0.11955568547208419,-0.03449283835135925
1745334319.5283172,0.745176,0.07381,-0.055083,3.7100000000000004,27.9125,4.19125,-0.3878982753580824,0.11955568547208419,-0.03449283835135925
1745334319.5332236,0.687531,0.084241,-0.123037,4.366250000000001,29.338750000000005,3.64875,-0.3878982753580824,0.11955568547208419,-0.03449283835135925
1745334319.538035,0.653371,0.124196,-0.14682699999999999,4.9437500000000005,31.955000000000002,4.138750000000001,-0.3878982753580824,0.11955568547208419,-0.03449283835135925
1745334319.5429235,0.68747,0.018727,-0.283955,6.282500000000001,31.053750000000004,7.227500000000001,-0.3878982753580824,0.11955568547208419,-0.03449283835135925
1745334319.547785,0.787266,0.07740899999999999,-0.32073799999999997,9.73,30.073750000000004,10.36875,-0.3878982753580824,0.11955568547208419,-0.03449283835135925
1745334319.5543082,0.919636,0.035197,-0.206119,11.742500000000001,29.286250000000003,10.45625,-0.38205203156971645,0.13241742180648933,-0.05363928675825782
1745334319.5579498,0.8705309999999999,0.061854,-0.24790399999999999,12.748750000000001,24.762500000000003,9.957500000000001,-0.38205203156971645,0.13241742180648933,-0.05363928675825782
1745334319.5627384,0.878949,0.031537,-0.189283,14.131250000000001,20.62375,9.16125,-0.38205203156971645,0.13241742180648933,-0.05363928675825782
1745334319.5676334,0.879742,0.075945,-0.26870499999999997,15.776250000000001,14.37625,6.973750000000001,-0.38205203156971645,0.13241742180648933,-0.05363928675825782
1745334319.5726047,0.947696,0.075518,-0.177205,16.835,11.48,4.41,-0.38205203156971645,0.13241742180648933,-0.05363928675825782
1745334319.5782123,0.954101,0.076921,-0.23460599999999998,18.10375,6.01125,-0.9975,-0.38205203156971645,0.13241742180648933,-0.05363928675825782
1745334319.5821776,0.905484,0.127917,-0.199348,18.73375,6.01125,-0.9975,-0.38205203156971645,0.13241742180648933,-0.05363928675825782
1745334319.5879147,0.837652,0.127185,-0.127673,18.76,3.6312500000000005,-1.7237500000000001,-0.38205203156971645,0.13241742180648933,-0.05363928675825782
1745334319.5922098,0.917501,0.098149,-0.033611,18.48,3.6312500000000005,-2.8350000000000004,-0.38205203156971645,0.13241742180648933,-0.05363928675825782
1745334319.5970232,0.9469029999999999,0.040382,-0.072163,15.70625,8.951250000000002,-4.83875,-0.38205203156971645,0.13241742180648933,-0.05363928675825782
1745334319.601964,1.087203,-0.000488,0.099247,15.680000000000001,10.071250000000001,-7.7700000000000005,-0.38205203156971645,0.13241742180648933,-0.05363928675825782
1745334319.6067865,0.974414,0.05063,-0.029828999999999998,13.2475,16.931250000000002,-8.496250000000002,-0.38205203156971645,0.13241742180648933,-0.05363928675825782
1745334319.6116576,0.617808,0.079361,-0.016409,12.801250000000001,19.687500000000004,-3.9112500000000003,-0.38205203156971645,0.13241742180648933,-0.05363928675825782
1745334319.6166801,0.694485,0.066917,-0.06709999999999999,13.160000000000002,19.0225,0.55125,-0.38205203156971645,0.13241742180648933,-0.05363928675825782
1745334319.6223118,0.773175,0.047885,-0.032513,12.451250000000002,20.833750000000002,5.915000000000001,-0.38205203156971645,0.13241742180648933,-0.05363928675825782
1745334319.629701,0.948855,0.014335,0.023363,11.628750000000002,17.368750000000002,8.60125,-0.38205203156971645,0.13241742180648933,-0.05363928675825782
1745334319.6331675,1.157475,0.027023,0.022143,11.4275,11.78625,9.213750000000001,-0.38205203156971645,0.13241742180648933,-0.05363928675825782
1745334319.6377504,1.1390529999999999,0.054534,0.049044,10.325000000000001,8.26875,8.21625,-0.38205203156971645,0.13241742180648933,-0.05363928675825782
1745334319.642645,1.0267519999999999,0.00488,0.02989,9.336250000000001,-0.061250000000000006,7.586250000000001,-0.38205203156971645,0.13241742180648933,-0.05363928675825782
1745334319.647513,0.964837,0.013847,-0.076372,9.03875,-6.405,4.41875,-0.38205203156971645,0.13241742180648933,-0.05363928675825782
1745334319.653221,0.908412,-0.002745,-0.129381,8.338750000000001,-7.796250000000001,-0.9187500000000001,-0.38205203156971645,0.13241742180648933,-0.05363928675825782
1745334319.6575427,0.821365,0.020862,-0.19550499999999998,7.875000000000001,-8.60125,-0.9187500000000001,-0.38205203156971645,0.13241742180648933,-0.05363928675825782
1745334319.6622934,0.721447,0.04819,-0.196969,7.32375,-6.370000000000001,-2.0125,-0.38205203156971645,0.13241742180648933,-0.05363928675825782
1745334319.6672363,0.682285,0.035623999999999996,-0.176656,6.6325,-7.428750000000001,-2.7387500000000005,-0.38205203156971645,0.13241742180648933,-0.05363928675825782
1745334319.6720514,0.726998,0.062159,-0.233142,5.486250000000001,-6.930000000000001,-3.4125000000000005,-0.38205203156971645,0.13241742180648933,-0.05363928675825782
1745334319.6769402,0.837774,0.051422999999999996,-0.235338,4.9262500000000005,-6.85125,-5.188750000000001,-0.38205203156971645,0.13241742180648933,-0.05363928675825782
1745334319.685244,1.004853,0.073017,-0.204472,4.795000000000001,-9.388750000000002,-6.142500000000001,-0.38205203156971645,0.13241742180648933,-0.05363928675825782
1745334319.6898453,1.0429169999999999,0.035685,-0.290177,5.206250000000001,-13.387500000000001,-7.026250000000001,-0.38205203156971645,0.13241742180648933,-0.05363928675825782
1745334319.6945918,1.052677,0.157685,-0.218441,6.2387500000000005,-15.28625,-8.58375,-0.38205203156971645,0.13241742180648933,-0.05363928675825782
1745334319.6995196,1.013454,0.090829,-0.23729,5.897500000000001,-16.37125,-8.627500000000001,-0.38205203156971645,0.13241742180648933,-0.05363928675825782
1745334319.7043116,0.877119,0.094306,-0.217587,5.836250000000001,-15.5225,-8.662500000000001,-0.38205203156971645,0.13241742180648933,-0.05363928675825782
1745334319.7092006,0.847168,0.107116,-0.208986,6.107500000000001,-16.625,-8.19875,-0.38205203156971645,0.13241742180648933,-0.05363928675825782
1745334319.7140744,0.9444629999999999,0.094123,-0.223138,5.5475,-15.435000000000002,-8.408750000000001,-0.38205203156971645,0.13241742180648933,-0.05363928675825782
1745334319.7197297,1.000156,0.092415,-0.153049,4.803750000000001,-15.128750000000002,-9.1875,-0.38205203156971645,0.13241742180648933,-0.05363928675825782
1745334319.724082,0.96197,0.07076,-0.138226,4.38375,-16.6075,-10.85875,-0.38205203156971645,0.13241742180648933,-0.05363928675825782
1745334319.7288632,0.997899,0.10174799999999999,-0.188002,3.5962500000000004,-18.03375,-12.32,-0.38205203156971645,0.13241742180648933,-0.05363928675825782
1745334319.7367313,0.922381,0.13078399999999998,-0.083814,2.4937500000000004,-16.415000000000003,-12.468750000000002,-0.38205203156971645,0.13241742180648933,-0.05363928675825782
1745334319.7401776,1.118069,0.007808,0.04026,2.0825,-19.556250000000002,-11.68125,-0.38205203156971645,0.13241742180648933,-0.05363928675825782
1745334319.7450423,1.362252,0.08851099999999999,0.045445,-0.10500000000000001,-22.33875,-15.006250000000001,-0.38205203156971645,0.13241742180648933,-0.05363928675825782
1745334319.7504952,1.384334,0.080764,0.050935,-3.0537500000000004,-24.473750000000003,-14.901250000000001,-0.37883659748611515,0.12423268050277697,-0.04399298450745396
1745334319.7553182,1.041209,-0.035318999999999996,-0.03721,-6.571250000000001,-23.28375,-14.131250000000001,-0.37883659748611515,0.12423268050277697,-0.04399298450745396
1745334319.7600577,0.867969,0.078568,-0.037393,-8.56625,-19.60875,-14.953750000000001,-0.37883659748611515,0.12423268050277697,-0.04399298450745396
1745334319.765005,0.9752069999999999,-0.030805,-0.041968,-10.430000000000001,-20.405,-6.23,-0.37883659748611515,0.12423268050277697,-0.04399298450745396
1745334319.7698278,1.13216,-0.024522,-0.062159,-12.62625,-14.971250000000001,-5.11875,-0.37883659748611515,0.12423268050277697,-0.04399298450745396
1745334319.774703,1.136552,0.005612,-0.07679899999999999,-17.9375,-10.465000000000002,-0.32375000000000004,-0.37883659748611515,0.12423268050277697,-0.04399298450745396
1745334319.7795682,1.052982,-0.040443,0.0008539999999999999,-20.405,-11.445,2.8262500000000004,-0.37883659748611515,0.12423268050277697,-0.04399298450745396
1745334319.7852254,1.014369,-0.021899,0.044774,-23.03,-12.416250000000002,5.442500000000001,-0.37883659748611515,0.12423268050277697,-0.04399298450745396
1745334319.791781,1.332728,-0.075701,-0.004514,-25.742500000000003,-12.67875,6.8775,-0.37883659748611515,0.12423268050277697,-0.04399298450745396
1745334319.795366,1.241228,-0.047640999999999996,0.019093,-28.560000000000002,-8.12875,6.343750000000001,-0.37883659748611515,0.12423268050277697,-0.04399298450745396
1745334319.8002229,1.157353,-0.049349,0.031659,-30.835000000000004,-6.492500000000001,6.930000000000001,-0.37883659748611515,0.12423268050277697,-0.04399298450745396
1745334319.8051002,1.1819359999999999,-0.04514,0.023363,-33.285000000000004,-5.827500000000001,7.5425,-0.37883659748611515,0.12423268050277697,-0.04399298450745396
1745334319.810154,1.14924,-0.060573,-0.042029,-35.77,-3.7275000000000005,8.435,-0.37883659748611515,0.12423268050277697,-0.04399298450745396
1745334319.8159413,1.052311,-0.022143,-0.07076,-38.63125,1.9425000000000001,8.74125,-0.37883659748611515,0.12423268050277697,-0.04399298450745396
1745334319.820517,1.027789,-0.049776,-0.137555,-40.95,6.2387500000000005,10.290000000000001,-0.37883659748611515,0.12423268050277697,-0.04399298450745396
1745334319.8253853,1.131489,-0.008235,-0.14835199999999998,-42.18375,11.637500000000001,10.972500000000002,-0.37883659748611515,0.12423268050277697,-0.04399298450745396
1745334319.8302283,1.1712609999999999,0.013176,-0.205814,-43.53125000000001,17.0275,11.418750000000001,-0.37883659748611515,0.12423268050277697,-0.04399298450745396
1745334319.835112,1.025593,0.011956,-0.263947,-45.17625,22.898750000000003,12.075000000000001,-0.37883659748611515,0.12423268050277697,-0.04399298450745396
1745334319.8399835,0.946415,-0.026168999999999998,-0.279075,-45.167500000000004,28.8575,14.315000000000001,-0.37883659748611515,0.12423268050277697,-0.04399298450745396
1745334319.8463514,1.247267,0.041479999999999996,-0.288469,-44.45875,26.827500000000004,13.335,-0.37883659748611515,0.12423268050277697,-0.04399298450745396
1745334319.850498,1.231651,0.037881,-0.289567,-44.9575,29.19,12.3375,-0.37883659748611515,0.12423268050277697,-0.04399298450745396
1745334319.8552587,1.293078,0.020252,-0.19147899999999998,-43.82000000000001,31.115000000000002,13.510000000000002,-0.37883659748611515,0.12423268050277697,-0.04399298450745396
1745334319.86018,1.254892,-0.016714,-0.199043,-42.595000000000006,28.708750000000002,11.576250000000002,-0.37883659748611515,0.12423268050277697,-0.04399298450745396
1745334319.8649695,1.2875269999999999,0.0032329999999999998,-0.17702199999999998,-40.39,27.230000000000004,9.87875,-0.37883659748611515,0.12423268050277697,-0.04399298450745396
1745334319.8698714,1.3401699999999999,-0.018605,-0.182146,-37.48500000000001,24.911250000000003,9.1875,-0.37883659748611515,0.12423268050277697,-0.04399298450745396
1745334319.8747294,1.344928,0.037332,-0.0854,-34.597500000000004,26.355000000000004,8.785,-0.37883659748611515,0.12423268050277697,-0.04399298450745396
1745334319.880383,1.257271,-0.011346,-0.044225,-33.32875000000001,27.641250000000003,9.213750000000001,-0.37883659748611515,0.12423268050277697,-0.04399298450745396
1745334319.8847883,1.166686,-0.083204,0.000976,-31.946250000000003,28.7175,9.336250000000001,-0.37883659748611515,0.12423268050277697,-0.04399298450745396
1745334319.8895352,1.180594,0.011956,0.027267,-30.555000000000003,28.997500000000002,7.32375,-0.37883659748611515,0.12423268050277697,-0.04399298450745396
1745334319.8973453,1.171688,-0.058498999999999995,-0.004331,-30.668750000000003,30.012500000000003,7.315,-0.37883659748611515,0.12423268050277697,-0.04399298450745396
1745334319.900728,1.115324,-0.08003199999999999,0.067527,-30.651250000000005,29.5925,4.077500000000001,-0.37883659748611515,0.12423268050277697,-0.04399298450745396
1745334319.9060197,1.078358,-0.059352999999999996,0.039710999999999996,-29.51375,29.44375,2.1700000000000004,-0.37883659748611515,0.12423268050277697,-0.04399298450745396
1745334319.9121833,1.130147,-0.076738,0.00183,-28.980000000000004,27.65875,1.3475000000000001,-0.37883659748611515,0.12423268050277697,-0.04399298450745396
1745334319.9167683,1.059448,-0.066734,-0.014518,-27.851250000000004,26.250000000000004,0.36750000000000005,-0.37883659748611515,0.12423268050277697,-0.04399298450745396
1745334319.921635,1.045479,-0.052337999999999996,-0.076311,-26.1275,24.01875,-0.8925000000000001,-0.37883659748611515,0.12423268050277697,-0.04399298450745396
1745334319.9265556,1.081591,-0.061854,-0.018727,-24.290000000000003,22.426250000000003,-2.0825,-0.37883659748611515,0.12423268050277697,-0.04399298450745396
1745334319.9313793,1.105869,-0.016531,-0.08588799999999999,-22.470000000000002,18.76875,-4.9350000000000005,-0.37883659748611515,0.12423268050277697,-0.04399298450745396
1745334319.9371383,1.0410869999999999,0.017324,-0.127856,-21.157500000000002,17.368750000000002,-6.6937500000000005,-0.37883659748611515,0.12423268050277697,-0.04399298450745396
