Timestamp,Accel X,Accel Y,Accel Z,Gyro X,Gyro Y,Gyro Z,Magneto X,Magneto Y,Magneto Z
1745334691.2154062,0.997777,0.063745,0.105469,-0.08750000000000001,-0.07,-1.8550000000000002,-0.24671148786904415,0.12043262204033908,-0.16778719672610348
1745334691.219368,1.00101,0.063745,0.10205299999999999,-0.07,-0.7612500000000001,0.34125000000000005,-0.25109617071031864,0.12774042677579656,-0.1734872844197603
1745334691.223541,1.00345,0.047153,0.10126,-0.12250000000000001,0.09625,0.77875,-0.25109617071031864,0.12774042677579656,-0.1734872844197603
1745334691.2266924,1.003084,0.06478199999999999,0.101931,-0.21875000000000003,-0.21000000000000002,0.41125000000000006,-0.25109617071031864,0.12774042677579656,-0.1734872844197603
1745334691.2299242,1.00467,0.063379,0.105103,-0.1925,0.08750000000000001,0.4025,-0.25109617071031864,0.12774042677579656,-0.1734872844197603
1745334691.2330158,1.002169,0.063501,0.105347,-0.11375000000000002,-0.3325,0.35000000000000003,-0.25109617071031864,0.12774042677579656,-0.1734872844197603
1745334691.2360518,1.002901,0.061,0.103944,-0.061250000000000006,-0.17500000000000002,0.4025,-0.25109617071031864,0.12774042677579656,-0.1734872844197603
1745334691.2391627,0.9989359999999999,0.060878,0.097234,2.12625,-0.07,0.49875,-0.25109617071031864,0.12774042677579656,-0.1734872844197603
1745334691.2423475,1.000522,0.04819,0.104432,-0.11375000000000002,-0.22750000000000004,0.36750000000000005,-0.25109617071031864,0.12774042677579656,-0.1734872844197603
1745334691.245685,0.99857,0.061671,0.107726,-0.28875,-0.1925,0.5687500000000001,-0.25109617071031864,0.12774042677579656,-0.1734872844197603
1745334691.2511685,1.000156,0.063684,0.106628,-0.052500000000000005,-0.2625,-0.0175,-0.25109617071031864,0.12774042677579656,-0.1734872844197603
1745334691.2554305,1.000034,0.063745,0.10174799999999999,0.026250000000000002,-0.09625,0.13125,-0.25109617071031864,0.12774042677579656,-0.1734872844197603
1745334691.259277,0.998997,0.062952,0.101931,0.00875,-0.07875000000000001,0.7525000000000001,-0.25109617071031864,0.12774042677579656,-0.1734872844197603
1745334691.2626624,0.999058,0.065697,0.10284599999999999,-0.11375000000000002,-0.12250000000000001,0.5687500000000001,-0.25109617071031864,0.12774042677579656,-0.1734872844197603
1745334691.2659664,0.996435,0.062464,0.105896,-0.16625,-0.6125,-0.5162500000000001,-0.25109617071031864,0.12774042677579656,-0.1734872844197603
1745334691.269317,0.996374,0.06344,0.104798,-0.10500000000000001,-0.46375000000000005,0.8925000000000001,-0.24641917567962585,0.12598655363928676,-0.1746565331774335
1745334691.2726448,1.005829,0.062525,0.098393,-0.23625000000000002,-0.08750000000000001,0.56,-0.24641917567962585,0.12598655363928676,-0.1746565331774335
1745334691.2771955,1.004426,0.063501,0.103639,-0.15750000000000003,0.20125,0.63875,-0.24641917567962585,0.12598655363928676,-0.1746565331774335
1745334691.2823334,1.001986,0.061915,0.103639,-0.00875,0.13125,0.13125,-0.24641917567962585,0.12598655363928676,-0.1746565331774335
1745334691.2863412,0.998204,0.058926,0.102968,0.035,0.07875000000000001,0.6562500000000001,-0.24641917567962585,0.12598655363928676,-0.1746565331774335
1745334691.2898114,1.001437,0.063379,0.101931,-0.07875000000000001,-0.11375000000000002,0.5687500000000001,-0.24641917567962585,0.12598655363928676,-0.1746565331774335
1745334691.2932272,1.005585,0.062891,0.102236,-0.21000000000000002,-0.052500000000000005,0.46375000000000005,-0.24641917567962585,0.12598655363928676,-0.1746565331774335
1745334691.2969227,0.9998509999999999,0.062647,0.102968,-0.052500000000000005,0.00875,0.5075000000000001,-0.24641917567962585,0.12598655363928676,-0.1746565331774335
1745334691.3001196,1.001803,0.058682,0.10345599999999999,-0.08750000000000001,0.0175,0.49000000000000005,-0.24641917567962585,0.12598655363928676,-0.1746565331774335
1745334691.3032131,1.001193,0.066795,0.10284599999999999,0.07,-0.18375000000000002,0.42875,-0.24641917567962585,0.12598655363928676,-0.1746565331774335
1745334691.3062174,0.997838,0.06222,0.101504,-0.17500000000000002,-0.28875,0.42000000000000004,-0.24641917567962585,0.12598655363928676,-0.1746565331774335
1745334691.3094318,0.9977159999999999,0.065819,0.102114,-0.13125,-0.15750000000000003,0.55125,-0.24641917567962585,0.12598655363928676,-0.1746565331774335
1745334691.3140252,0.997472,0.060878,0.104005,-0.24500000000000002,-0.10500000000000001,0.035,-0.24641917567962585,0.12598655363928676,-0.1746565331774335
1745334691.3175614,0.998997,0.063806,0.103395,-0.043750000000000004,-0.63875,0.21875000000000003,-0.24144986845951477,0.12364805612394036,-0.17538731365097926
1745334691.3209572,1.001803,0.06344,0.104798,2.0650000000000004,-0.28875,0.6300000000000001,-0.24144986845951477,0.12364805612394036,-0.17538731365097926
1745334691.3240778,1.004426,0.062769,0.101809,-0.15750000000000003,-0.35000000000000003,0.44625000000000004,-0.24144986845951477,0.12364805612394036,-0.17538731365097926
1745334691.3272734,1.00589,0.060451,0.101504,-0.11375000000000002,-0.22750000000000004,0.47250000000000003,-0.24144986845951477,0.12364805612394036,-0.17538731365097926
1745334691.330345,1.001742,0.063257,0.099186,-0.09625,0.0175,0.37625000000000003,-0.24144986845951477,0.12364805612394036,-0.17538731365097926
1745334691.3333764,1.001437,0.050081,0.105042,-0.14875000000000002,-0.15750000000000003,0.36750000000000005,-0.24144986845951477,0.12364805612394036,-0.17538731365097926
1745334691.3364353,0.998204,0.062769,0.104432,-0.08750000000000001,-0.13125,0.385,-0.24144986845951477,0.12364805612394036,-0.17538731365097926
1745334691.3394475,1.005097,0.065636,0.105408,-0.21875000000000003,-0.20125,0.35000000000000003,-0.24144986845951477,0.12364805612394036,-0.17538731365097926
1745334691.3424363,1.006073,0.063013,0.10174799999999999,-0.28,-0.28875,0.27125000000000005,-0.24144986845951477,0.12364805612394036,-0.17538731365097926
1745334691.3463943,1.007659,0.061,0.105469,-0.21000000000000002,0.0175,0.47250000000000003,-0.24144986845951477,0.12364805612394036,-0.17538731365097926
1745334691.3506837,0.999973,0.063806,0.10376099999999999,-0.18375000000000002,0.22750000000000004,0.7262500000000001,-0.24144986845951477,0.12364805612394036,-0.17538731365097926
1745334691.3542624,0.996984,0.060939,0.102175,-0.14,-0.07875000000000001,0.5337500000000001,-0.24144986845951477,0.12364805612394036,-0.17538731365097926
1745334691.3574433,0.999424,0.064294,0.10668899999999999,-0.07875000000000001,-0.23625000000000002,0.31500000000000006,-0.24144986845951477,0.12364805612394036,-0.17538731365097926
1745334691.360762,0.9992409999999999,0.062342,0.101626,0.00875,-0.29750000000000004,0.49875,-0.24144986845951477,0.12364805612394036,-0.17538731365097926
1745334691.3639202,1.002657,0.063318,0.100894,0.026250000000000002,-0.42000000000000004,-0.37625000000000003,-0.24144986845951477,0.12364805612394036,-0.17538731365097926
1745334691.36705,1.005097,0.060573,0.10284599999999999,-0.026250000000000002,-0.5337500000000001,0.0,-0.24115755627009647,0.12394036831335867,-0.1740719087985969
1745334691.3701427,1.001071,0.060268,0.100467,-0.043750000000000004,0.052500000000000005,0.6825000000000001,-0.24115755627009647,0.12394036831335867,-0.1740719087985969
1745334691.3732638,0.998509,0.065026,0.105408,0.11375000000000002,-0.08750000000000001,0.44625000000000004,-0.24115755627009647,0.12394036831335867,-0.1740719087985969
1745334691.3766322,1.001132,0.062098,0.10309,0.026250000000000002,-0.16625,0.47250000000000003,-0.24115755627009647,0.12394036831335867,-0.1740719087985969
1745334691.3812556,0.994849,0.063196,0.10144299999999999,0.0,-0.28,0.42875,-0.24115755627009647,0.12394036831335867,-0.1740719087985969
1745334691.3849313,0.999119,0.065209,0.10437099999999999,-0.11375000000000002,0.08750000000000001,0.5075000000000001,-0.24115755627009647,0.12394036831335867,-0.1740719087985969
1745334691.3888602,0.9998509999999999,0.063623,0.10467599999999999,-0.035,-0.07875000000000001,0.63875,-0.24115755627009647,0.12394036831335867,-0.1740719087985969
1745334691.3920193,0.997655,0.060695,0.102114,-0.043750000000000004,-0.17500000000000002,0.46375000000000005,-0.24115755627009647,0.12394036831335867,-0.1740719087985969
1745334691.3951435,0.999668,0.062280999999999996,0.105164,-0.00875,-0.21875000000000003,0.35000000000000003,-0.24115755627009647,0.12394036831335867,-0.1740719087985969
1745334691.398274,1.004548,0.062464,0.108641,-0.14,-0.28875,0.28,-0.24115755627009647,0.12394036831335867,-0.1740719087985969
1745334691.401385,0.998814,0.065941,0.106262,-0.28875,-0.08750000000000001,0.5075000000000001,-0.24115755627009647,0.12394036831335867,-0.1740719087985969
1745334691.404425,1.002291,0.064355,0.101077,-0.24500000000000002,-0.21000000000000002,0.27125000000000005,-0.24115755627009647,0.12394036831335867,-0.1740719087985969
1745334691.4079056,0.996313,0.063135,0.099369,0.0,-0.18375000000000002,0.35875,-0.24115755627009647,0.12394036831335867,-0.1740719087985969
1745334691.412439,1.001437,0.062342,0.1037,-0.08750000000000001,-0.026250000000000002,0.5162500000000001,-0.24115755627009647,0.12394036831335867,-0.1740719087985969
1745334691.4210527,1.001315,0.061793,0.100955,-0.1925,0.47250000000000003,1.09375,-0.23735749780765858,0.12627886582870507,-0.17538731365097926
1745334691.4267385,1.002596,0.06508699999999999,0.103822,-0.0175,0.2625,0.74375,-0.23735749780765858,0.12627886582870507,-0.17538731365097926
1745334691.4298756,1.00101,0.065941,0.103334,-0.043750000000000004,-0.31500000000000006,0.25375000000000003,-0.23735749780765858,0.12627886582870507,-0.17538731365097926
1745334691.4330056,1.000278,0.060939,0.102724,-0.15750000000000003,-0.42000000000000004,0.5075000000000001,-0.23735749780765858,0.12627886582870507,-0.17538731365097926
1745334691.4361336,1.001132,0.061915,0.103273,-0.061250000000000006,-0.21000000000000002,0.23625000000000002,-0.23735749780765858,0.12627886582870507,-0.17538731365097926
1745334691.4392142,0.999729,0.060939,0.104615,0.23625000000000002,-0.32375000000000004,0.3325,-0.23735749780765858,0.12627886582870507,-0.17538731365097926
1745334691.4429348,0.997289,0.061671,0.102785,0.061250000000000006,-0.31500000000000006,0.49875,-0.23735749780765858,0.12627886582870507,-0.17538731365097926
1745334691.448003,1.002596,0.060024,0.102114,-0.12250000000000001,0.13125,0.5950000000000001,-0.23735749780765858,0.12627886582870507,-0.17538731365097926
1745334691.4514925,0.999424,0.067039,0.10248,-0.0175,-0.21000000000000002,0.43750000000000006,-0.23735749780765858,0.12627886582870507,-0.17538731365097926
1745334691.4546597,1.00223,0.066612,0.105347,0.0,-0.2625,0.39375000000000004,-0.23735749780765858,0.12627886582870507,-0.17538731365097926
1745334691.4578001,1.005646,0.061671,0.10187,0.043750000000000004,-0.13125,0.5337500000000001,-0.23735749780765858,0.12627886582870507,-0.17538731365097926
1745334691.4609058,1.001071,0.061,0.106262,-0.052500000000000005,-0.42000000000000004,0.49000000000000005,-0.23735749780765858,0.12627886582870507,-0.17538731365097926
1745334691.4641793,1.003938,0.062769,0.103029,-0.14875000000000002,-0.805,-0.32375000000000004,-0.24612686349020754,0.12715580239695995,-0.17480268927214265
1745334691.467364,1.007903,0.061549,0.104005,0.035,0.21000000000000002,0.8750000000000001,-0.24612686349020754,0.12715580239695995,-0.17480268927214265
1745334691.4713807,1.002352,0.060695,0.103029,-0.11375000000000002,0.0,0.5775,-0.24612686349020754,0.12715580239695995,-0.17480268927214265
1745334691.478688,0.99979,0.064294,0.101077,-0.15750000000000003,0.16625,0.6825000000000001,-0.24612686349020754,0.12715580239695995,-0.17480268927214265
1745334691.4820037,1.000217,0.064233,0.104005,-0.061250000000000006,-0.18375000000000002,-0.13125,-0.24612686349020754,0.12715580239695995,-0.17480268927214265
1745334691.4851415,1.005463,0.064538,0.103944,-0.24500000000000002,-0.34125000000000005,0.21000000000000002,-0.24612686349020754,0.12715580239695995,-0.17480268927214265
1745334691.4883192,1.002108,0.06161,0.100284,-0.052500000000000005,-0.21000000000000002,0.34125000000000005,-0.24612686349020754,0.12715580239695995,-0.17480268927214265
1745334691.4916208,1.00101,0.056974,0.10187,0.0175,-0.27125000000000005,0.45500000000000007,-0.24612686349020754,0.12715580239695995,-0.17480268927214265
1745334691.4948552,0.999485,0.063684,0.10406599999999999,-0.043750000000000004,-0.37625000000000003,0.39375000000000004,-0.24612686349020754,0.12715580239695995,-0.17480268927214265
1745334691.498091,1.000949,0.065575,0.103578,0.09625,-0.12250000000000001,0.27125000000000005,-0.24612686349020754,0.12715580239695995,-0.17480268927214265
1745334691.5011952,1.000461,0.06478199999999999,0.10309,0.07,-0.28875,0.49000000000000005,-0.24612686349020754,0.12715580239695995,-0.17480268927214265
1745334691.5045002,1.000461,0.061732,0.100711,-0.061250000000000006,-0.35000000000000003,0.46375000000000005,-0.24612686349020754,0.12715580239695995,-0.17480268927214265
1745334691.5089595,1.004304,0.064599,0.101565,0.00875,0.07875000000000001,-0.10500000000000001,-0.24612686349020754,0.12715580239695995,-0.17480268927214265
1745334691.5124857,0.9952759999999999,0.064904,0.102114,-0.14875000000000002,-0.385,-0.28875,-0.24612686349020754,0.12715580239695995,-0.17480268927214265
1745334691.5159192,0.998814,0.064538,0.106506,0.13125,-0.5075000000000001,0.9187500000000001,-0.2318035662087109,0.12540192926045016,-0.1734872844197603
1745334691.5191288,1.000095,0.064965,0.104798,-0.07,-0.035,0.6212500000000001,-0.2318035662087109,0.12540192926045016,-0.1734872844197603
1745334691.5223505,1.000461,0.059536,0.105286,0.026250000000000002,0.043750000000000004,0.5775,-0.2318035662087109,0.12540192926045016,-0.1734872844197603
1745334691.5254822,1.000949,0.059352999999999996,0.09820999999999999,-0.17500000000000002,-0.15750000000000003,0.5775,-0.2318035662087109,0.12540192926045016,-0.1734872844197603
1745334691.528574,1.00406,0.076067,0.099064,-0.11375000000000002,-0.10500000000000001,0.45500000000000007,-0.2318035662087109,0.12540192926045016,-0.1734872844197603
1745334691.5404828,0.997472,0.062891,0.101809,-0.00875,0.17500000000000002,0.8750000000000001,-0.2318035662087109,0.12540192926045016,-0.1734872844197603
1745334691.544878,1.001376,0.061975999999999996,0.102236,0.00875,-0.25375000000000003,0.30625,-0.2318035662087109,0.12540192926045016,-0.1734872844197603
1745334691.5483487,0.99918,0.061549,0.097661,-0.043750000000000004,-0.30625,0.58625,-0.2318035662087109,0.12540192926045016,-0.1734872844197603
1745334691.551455,0.998509,0.061488,0.10498099999999999,0.14,-0.21000000000000002,0.30625,-0.2318035662087109,0.12540192926045016,-0.1734872844197603
1745334691.5546048,1.002535,0.064721,0.10205299999999999,-0.21000000000000002,-0.13125,0.30625,-0.2318035662087109,0.12540192926045016,-0.1734872844197603
1745334691.5577238,1.000156,0.063318,0.101016,-0.2625,-0.14875000000000002,0.42000000000000004,-0.2318035662087109,0.12540192926045016,-0.1734872844197603
1745334691.560778,0.9961909999999999,0.061854,0.103883,-0.07,-0.32375000000000004,0.0,-0.2318035662087109,0.12540192926045016,-0.1734872844197603
1745334691.564043,1.004487,0.063745,0.102724,-0.052500000000000005,-0.27125000000000005,0.29750000000000004,-0.24291142940660626,0.12277111955568547,-0.17231803566208712
1745334691.5671852,1.001376,0.062464,0.105469,-0.14875000000000002,0.052500000000000005,0.49875,-0.24291142940660626,0.12277111955568547,-0.17231803566208712
1745334691.570292,1.00101,0.061121999999999996,0.102175,-0.10500000000000001,-0.21000000000000002,0.5687500000000001,-0.24291142940660626,0.12277111955568547,-0.17231803566208712
1745334691.5746877,1.001132,0.061915,0.10607899999999999,-0.08750000000000001,-0.035,0.46375000000000005,-0.24291142940660626,0.12277111955568547,-0.17231803566208712
1745334691.5790925,0.9852719999999999,0.06222,0.103944,-0.14875000000000002,2.1350000000000002,0.28,-0.24291142940660626,0.12277111955568547,-0.17231803566208712
1745334691.5827289,0.9998509999999999,0.065331,0.104005,2.21375,-0.08750000000000001,0.49875,-0.24291142940660626,0.12277111955568547,-0.17231803566208712
1745334691.585913,0.997899,0.06405,0.10113799999999999,-0.25375000000000003,-0.31500000000000006,0.28,-0.24291142940660626,0.12277111955568547,-0.17231803566208712
1745334691.589146,0.996435,0.063257,0.105835,-0.10500000000000001,-0.18375000000000002,0.37625000000000003,-0.24291142940660626,0.12277111955568547,-0.17231803566208712
1745334691.5952947,1.002901,0.058865,0.10126,-0.052500000000000005,0.29750000000000004,1.1725,-0.24291142940660626,0.12277111955568547,-0.17231803566208712
1745334691.5984304,1.00284,0.060634,0.100101,-0.11375000000000002,-0.69125,0.0,-0.24291142940660626,0.12277111955568547,-0.17231803566208712
1745334691.6014426,0.9995459999999999,0.062525,0.104188,-0.043750000000000004,-0.37625000000000003,0.32375000000000004,-0.24291142940660626,0.12277111955568547,-0.17231803566208712
1745334691.6044528,0.999973,0.062647,0.103883,0.035,-0.29750000000000004,0.385,-0.24291142940660626,0.12277111955568547,-0.17231803566208712
1745334691.6098773,0.9986309999999999,0.063318,0.105652,0.14,-0.22750000000000004,0.525,-0.24291142940660626,0.12277111955568547,-0.17231803566208712
1745334691.6132488,1.002535,0.061244,0.099735,-0.035,-0.42000000000000004,0.42000000000000004,-0.24057293189125986,0.1178018123355744,-0.1734872844197603
1745334691.6166725,1.001864,0.060329,0.102175,-2.10875,-0.043750000000000004,0.69125,-0.24057293189125986,0.1178018123355744,-0.1734872844197603
1745334691.619759,1.002047,0.061793,0.101992,-0.035,-0.035,0.29750000000000004,-0.24057293189125986,0.1178018123355744,-0.1734872844197603
1745334691.6228127,1.003267,0.061366,0.104249,0.026250000000000002,-0.18375000000000002,0.5075000000000001,-0.24057293189125986,0.1178018123355744,-0.1734872844197603
1745334691.6257844,1.004609,0.062647,0.098637,-0.25375000000000003,-0.25375000000000003,0.2625,-0.24057293189125986,0.1178018123355744,-0.1734872844197603
1745334691.628815,1.000217,0.062464,0.097661,-0.31500000000000006,-0.09625,0.44625000000000004,-0.24057293189125986,0.1178018123355744,-0.1734872844197603
1745334691.6318598,1.003694,0.06161,0.10205299999999999,-0.15750000000000003,0.0175,0.35875,-0.24057293189125986,0.1178018123355744,-0.1734872844197603
1745334691.635059,0.997655,0.077165,0.101565,-0.07,-0.28875,0.37625000000000003,-0.24057293189125986,0.1178018123355744,-0.1734872844197603
1745334691.6405733,0.9998509999999999,0.063806,0.104493,-0.09625,-0.30625,-0.035,-0.24057293189125986,0.1178018123355744,-0.1734872844197603
1745334691.6441147,1.001986,0.063867,0.101992,-0.14,-0.25375000000000003,0.35000000000000003,-0.24057293189125986,0.1178018123355744,-0.1734872844197603
1745334691.6497784,1.004426,0.065514,0.104615,-0.07,0.3325,0.58625,-0.24057293189125986,0.1178018123355744,-0.1734872844197603
1745334691.6530802,1.005951,0.063989,0.105286,-0.24500000000000002,-0.12250000000000001,0.29750000000000004,-0.24057293189125986,0.1178018123355744,-0.1734872844197603
1745334691.656391,1.000095,0.065575,0.102907,-2.23125,-0.27125000000000005,0.46375000000000005,-0.24057293189125986,0.1178018123355744,-0.1734872844197603
1745334691.6594977,0.9989359999999999,0.062647,0.10498099999999999,0.09625,-0.22750000000000004,-2.23125,-0.24057293189125986,0.1178018123355744,-0.1734872844197603
1745334691.662667,1.000766,0.059841,0.10052799999999999,-0.10500000000000001,-0.32375000000000004,0.13125,-0.24437299035369775,0.12423268050277697,-0.17261034785150542
1745334691.6660075,1.001559,0.066551,0.102724,-0.13125,0.12250000000000001,0.6475000000000001,-0.24437299035369775,0.12423268050277697,-0.17261034785150542
1745334691.6696641,1.0004,0.062952,0.099247,-0.052500000000000005,-0.15750000000000003,0.47250000000000003,-0.24437299035369775,0.12423268050277697,-0.17261034785150542
1745334691.6752923,1.002718,0.062586,0.102358,-0.07875000000000001,0.07875000000000001,0.14,-0.24437299035369775,0.12423268050277697,-0.17261034785150542
1745334691.6789267,1.0004,0.060451,0.100101,0.035,-0.043750000000000004,0.6562500000000001,-0.24437299035369775,0.12423268050277697,-0.17261034785150542
1745334691.6821477,0.997899,0.060573,0.101626,-0.12250000000000001,-0.07,0.56,-0.24437299035369775,0.12423268050277697,-0.17261034785150542
1745334691.6853223,1.003877,0.060756,0.098759,-0.08750000000000001,-0.24500000000000002,0.28,-0.24437299035369775,0.12423268050277697,-0.17261034785150542
1745334691.6884944,0.999424,0.059414,0.10004,-0.035,-0.23625000000000002,0.43750000000000006,-0.24437299035369775,0.12423268050277697,-0.17261034785150542
1745334691.6916378,1.004304,0.059657999999999996,0.105347,0.043750000000000004,-0.061250000000000006,0.48125000000000007,-0.24437299035369775,0.12423268050277697,-0.17261034785150542
1745334691.6947525,1.002718,0.061732,0.104432,-0.08750000000000001,-0.27125000000000005,0.36750000000000005,-0.24437299035369775,0.12423268050277697,-0.17261034785150542
1745334691.6978796,1.003389,0.062769,0.101809,-0.16625,-0.20125,0.34125000000000005,-0.24437299035369775,0.12423268050277697,-0.17261034785150542
1745334691.7044563,1.00284,0.061061,0.10437099999999999,0.026250000000000002,0.34125000000000005,0.6125,-0.24437299035369775,0.12423268050277697,-0.17261034785150542
1745334691.7090046,0.999485,0.063867,0.102358,-0.10500000000000001,-0.5775,-0.7612500000000001,-0.24437299035369775,0.12423268050277697,-0.17261034785150542
1745334691.7125645,1.001742,0.062708,0.099125,-0.1925,-0.32375000000000004,0.7612500000000001,-0.23998830751242325,0.12101724641917568,-0.17363344051446947
1745334691.7157328,0.996069,0.061488,0.102541,-0.00875,0.043750000000000004,0.42875,-0.23998830751242325,0.12101724641917568,-0.17363344051446947
1745334691.7190423,1.001803,0.06466,0.10174799999999999,0.043750000000000004,-0.28875,0.2625,-0.23998830751242325,0.12101724641917568,-0.17363344051446947
1745334691.7222023,0.9952759999999999,0.060511999999999996,0.100772,-0.22750000000000004,-0.18375000000000002,0.6475000000000001,-0.23998830751242325,0.12101724641917568,-0.17363344051446947
1745334691.7253435,1.000217,0.062708,0.100162,-0.24500000000000002,-0.21875000000000003,0.385,-0.23998830751242325,0.12101724641917568,-0.17363344051446947
1745334691.7284822,0.999363,0.063562,0.102968,0.061250000000000006,-0.21875000000000003,0.31500000000000006,-0.23998830751242325,0.12101724641917568,-0.17363344051446947
1745334691.7315435,1.001803,0.059841,0.102358,-0.16625,-0.18375000000000002,0.43750000000000006,-0.23998830751242325,0.12101724641917568,-0.17363344051446947
1745334691.7346678,1.00345,0.06447699999999999,0.105042,-0.09625,-0.31500000000000006,0.43750000000000006,-0.23998830751242325,0.12101724641917568,-0.17363344051446947
1745334691.738761,0.998997,0.066856,0.102663,-0.15750000000000003,-0.10500000000000001,0.42000000000000004,-0.23998830751242325,0.12101724641917568,-0.17363344051446947
1745334691.7432244,1.003938,0.059657999999999996,0.100589,-0.25375000000000003,-0.043750000000000004,0.47250000000000003,-0.23998830751242325,0.12101724641917568,-0.17363344051446947
1745334691.747309,1.003267,0.062525,0.101809,-0.21875000000000003,-0.14875000000000002,0.15750000000000003,-0.23998830751242325,0.12101724641917568,-0.17363344051446947
1745334691.7505043,1.002779,0.063989,0.099613,-0.052500000000000005,-0.24500000000000002,0.35875,-0.23998830751242325,0.12101724641917568,-0.17363344051446947
1745334691.7566717,1.002596,0.066612,0.105225,-0.1925,0.34125000000000005,0.7525000000000001,-0.23998830751242325,0.12101724641917568,-0.17363344051446947
1745334691.759872,1.00101,0.061915,0.105103,-0.14875000000000002,-0.8750000000000001,-0.6737500000000001,-0.24028061970184156,0.12598655363928676,-0.17217187956737795
1745334691.763007,0.999729,0.061549,0.102602,0.052500000000000005,0.061250000000000006,0.7262500000000001,-0.24028061970184156,0.12598655363928676,-0.17217187956737795
1745334691.7660954,0.9958859999999999,0.063074,0.107238,-0.026250000000000002,-0.035,0.56,-0.24028061970184156,0.12598655363928676,-0.17217187956737795
1745334691.769211,0.996435,0.063623,0.104127,-0.09625,-0.10500000000000001,0.4025,-0.24028061970184156,0.12598655363928676,-0.17217187956737795
1745334691.7733128,0.999302,0.061121999999999996,0.098881,-0.12250000000000001,-0.11375000000000002,0.525,-0.24028061970184156,0.12598655363928676,-0.17217187956737795
1745334691.7776332,1.003877,0.063318,0.103029,-0.052500000000000005,0.09625,0.805,-0.24028061970184156,0.12598655363928676,-0.17217187956737795
1745334691.7817132,1.001254,0.061121999999999996,0.102175,-0.12250000000000001,0.12250000000000001,0.7087500000000001,-0.24028061970184156,0.12598655363928676,-0.17217187956737795
1745334691.7851145,0.999424,0.064721,0.100711,-0.09625,-0.31500000000000006,0.43750000000000006,-0.24028061970184156,0.12598655363928676,-0.17217187956737795
1745334691.7883835,0.998265,0.065514,0.10022299999999999,-0.07875000000000001,-0.20125,0.49875,-0.24028061970184156,0.12598655363928676,-0.17217187956737795
1745334691.7917032,1.002718,0.061061,0.102175,0.07,-0.28,0.39375000000000004,-0.24028061970184156,0.12598655363928676,-0.17217187956737795
1745334691.795016,1.005463,0.050508,0.10187,-0.14875000000000002,-0.37625000000000003,0.44625000000000004,-0.24028061970184156,0.12598655363928676,-0.17217187956737795
1745334691.7983005,1.003572,0.063806,0.10315099999999999,-0.14875000000000002,-0.043750000000000004,0.46375000000000005,-0.24028061970184156,0.12598655363928676,-0.17217187956737795
1745334691.804405,0.998509,0.060634,0.10205299999999999,-0.08750000000000001,0.21000000000000002,0.5425000000000001,-0.24028061970184156,0.12598655363928676,-0.17217187956737795
1745334691.8112369,1.003084,0.061305,0.107482,0.10500000000000001,0.0175,0.9800000000000001,-0.24671148786904415,0.12043262204033908,-0.1720257234726688
1745334691.814971,0.999119,0.057767,0.102175,-0.08750000000000001,-0.18375000000000002,0.7000000000000001,-0.24671148786904415,0.12043262204033908,-0.1720257234726688
1745334691.8185678,1.004426,0.063135,0.100772,-0.07,-0.25375000000000003,0.30625,-0.24671148786904415,0.12043262204033908,-0.1720257234726688
1745334691.8220003,1.001498,0.066124,0.103944,-0.1925,-0.28875,0.42000000000000004,-0.24671148786904415,0.12043262204033908,-0.1720257234726688
1745334691.825472,1.002047,0.063745,0.10345599999999999,-0.21000000000000002,-0.043750000000000004,0.5337500000000001,-0.24671148786904415,0.12043262204033908,-0.1720257234726688
1745334691.8287709,0.996923,0.060634,0.104005,-0.15750000000000003,-0.1925,0.5337500000000001,-0.24671148786904415,0.12043262204033908,-0.1720257234726688
1745334691.8320282,1.003511,0.065514,0.099857,-0.0175,-0.28,0.36750000000000005,-0.24671148786904415,0.12043262204033908,-0.1720257234726688
1745334691.8383749,0.999607,0.061244,0.102907,-0.0175,-0.30625,-0.035,-0.24671148786904415,0.12043262204033908,-0.1720257234726688
1745334691.842478,1.000217,0.065331,0.102602,0.00875,-0.17500000000000002,0.36750000000000005,-0.24671148786904415,0.12043262204033908,-0.1720257234726688
1745334691.845928,1.001254,0.064965,0.103212,-0.0175,-0.25375000000000003,0.4025,-0.24671148786904415,0.12043262204033908,-0.1720257234726688
1745334691.8496842,1.003877,0.063623,0.10315099999999999,-0.15750000000000003,-0.043750000000000004,0.665,-0.24671148786904415,0.12043262204033908,-0.1720257234726688
1745334691.853151,1.005768,0.059536,0.102236,-0.12250000000000001,-0.061250000000000006,0.5425000000000001,-0.24671148786904415,0.12043262204033908,-0.1720257234726688
1745334691.8565762,1.001681,0.062342,0.101077,-0.10500000000000001,-0.23625000000000002,-0.21000000000000002,-0.24671148786904415,0.12043262204033908,-0.1720257234726688
1745334691.8632643,0.999119,0.065575,0.101199,-0.061250000000000006,-0.24500000000000002,0.5075000000000001,-0.24700380005846242,0.11984799766150249,-0.1720257234726688
1745334691.8669758,1.001803,0.063257,0.103273,0.00875,-0.37625000000000003,0.17500000000000002,-0.24700380005846242,0.11984799766150249,-0.1720257234726688
1745334691.873651,0.99979,0.06478199999999999,0.10309,-0.14875000000000002,-1.9687500000000002,-0.17500000000000002,-0.24700380005846242,0.11984799766150249,-0.1720257234726688
1745334691.877876,0.998692,0.061305,0.102297,-0.14875000000000002,-0.12250000000000001,0.77875,-0.24700380005846242,0.11984799766150249,-0.1720257234726688
1745334691.881432,0.9998509999999999,0.063135,0.102236,-0.07875000000000001,-0.35875,0.41125000000000006,-0.24700380005846242,0.11984799766150249,-0.1720257234726688
1745334691.8851118,1.002474,0.064355,0.10083299999999999,-0.14875000000000002,-0.15750000000000003,0.525,-0.24700380005846242,0.11984799766150249,-0.1720257234726688
1745334691.8886535,1.000339,0.06527,0.102541,0.043750000000000004,-0.1925,0.22750000000000004,-0.24700380005846242,0.11984799766150249,-0.1720257234726688
1745334691.8921247,1.014979,0.059475,0.10113799999999999,-0.07,-0.31500000000000006,0.43750000000000006,-0.24700380005846242,0.11984799766150249,-0.1720257234726688
1745334691.8955996,1.001315,0.064233,0.100101,-0.14875000000000002,-0.12250000000000001,0.43750000000000006,-0.24700380005846242,0.11984799766150249,-0.1720257234726688
1745334691.8990085,1.002352,0.050203,0.100955,-0.08750000000000001,-0.17500000000000002,0.36750000000000005,-0.24700380005846242,0.11984799766150249,-0.1720257234726688
1745334691.903048,1.000888,0.065636,0.104432,0.0,-0.12250000000000001,0.026250000000000002,-0.24700380005846242,0.11984799766150249,-0.1720257234726688
1745334691.9081118,0.997533,0.063318,0.102297,-0.09625,-0.5775,-0.052500000000000005,-0.23852674656533177,0.12014030985092078,-0.18357205495469162
1745334691.912477,0.998143,0.064416,0.103822,0.035,0.07,0.665,-0.23852674656533177,0.12014030985092078,-0.18357205495469162
1745334691.9185615,1.001071,0.063989,0.103273,-0.21000000000000002,0.41125000000000006,0.7000000000000001,-0.23852674656533177,0.12014030985092078,-0.18357205495469162
1745334691.9220762,1.003206,0.063379,0.098027,-0.10500000000000001,-0.28,0.385,-0.23852674656533177,0.12014030985092078,-0.18357205495469162
1745334691.9254944,1.00101,0.064721,0.102236,-0.061250000000000006,-0.07875000000000001,0.5687500000000001,-0.23852674656533177,0.12014030985092078,-0.18357205495469162
1745334691.9289415,1.005463,0.065209,0.102968,-0.035,-0.10500000000000001,0.6212500000000001,-0.23852674656533177,0.12014030985092078,-0.18357205495469162
1745334691.9321392,1.003755,0.061732,0.101504,-0.052500000000000005,-0.14875000000000002,0.46375000000000005,-0.23852674656533177,0.12014030985092078,-0.18357205495469162
1745334691.9355507,1.002535,0.048251,0.10113799999999999,-0.18375000000000002,-0.14875000000000002,0.41125000000000006,-0.23852674656533177,0.12014030985092078,-0.18357205495469162
1745334691.9418058,0.999119,0.061305,0.100162,-0.07,0.08750000000000001,0.31500000000000006,-0.23852674656533177,0.12014030985092078,-0.18357205495469162
1745334691.9458215,1.003877,0.066429,0.10248,-0.08750000000000001,-0.24500000000000002,0.60375,-0.23852674656533177,0.12014030985092078,-0.18357205495469162
1745334691.9493577,1.001925,0.061426999999999995,0.102175,-0.30625,-0.18375000000000002,0.42875,-0.23852674656533177,0.12014030985092078,-0.18357205495469162
1745334691.953048,1.003877,0.058498999999999995,0.103029,-0.061250000000000006,-0.22750000000000004,0.41125000000000006,-0.23852674656533177,0.12014030985092078,-0.18357205495469162
1745334691.956556,1.003572,0.061305,0.099857,-0.061250000000000006,-0.7612500000000001,0.07875000000000001,-0.24086524408067816,0.12540192926045016,-0.182987430575855
1745334691.960005,1.001193,0.061061,0.098759,0.043750000000000004,-0.08750000000000001,0.7350000000000001,-0.24086524408067816,0.12540192926045016,-0.182987430575855
1745334691.963455,0.988322,0.062464,0.102968,0.09625,-0.043750000000000004,0.4025,-0.24086524408067816,0.12540192926045016,-0.182987430575855
1745334691.966862,1.002779,0.061732,0.101992,-0.052500000000000005,-0.28875,0.37625000000000003,-0.24086524408067816,0.12540192926045016,-0.182987430575855
1745334691.9739351,0.997289,0.061,0.09759999999999999,-0.026250000000000002,0.07875000000000001,0.11375000000000002,-0.24086524408067816,0.12540192926045016,-0.182987430575855
1745334691.977941,0.999058,0.059962999999999995,0.10205299999999999,-0.21000000000000002,0.035,0.7000000000000001,-0.24086524408067816,0.12540192926045016,-0.182987430575855
1745334691.9818044,0.9992409999999999,0.063806,0.09991799999999999,-0.16625,-0.026250000000000002,0.7087500000000001,-0.24086524408067816,0.12540192926045016,-0.182987430575855
1745334691.985446,0.995459,0.059292,0.10345599999999999,-0.22750000000000004,-0.08750000000000001,0.5425000000000001,-0.24086524408067816,0.12540192926045016,-0.182987430575855
1745334691.9890313,1.000034,0.062586,0.101687,-0.08750000000000001,-0.31500000000000006,0.58625,-0.24086524408067816,0.12540192926045016,-0.182987430575855
1745334691.9924421,1.000339,0.063562,0.107421,-0.11375000000000002,-0.36750000000000005,0.36750000000000005,-0.24086524408067816,0.12540192926045016,-0.182987430575855
1745334691.995894,1.005036,0.065514,0.103578,-0.08750000000000001,-0.09625,0.58625,-0.24086524408067816,0.12540192926045016,-0.182987430575855
1745334691.9992807,1.002962,0.065148,0.103273,-0.11375000000000002,-0.035,0.41125000000000006,-0.24086524408067816,0.12540192926045016,-0.182987430575855
1745334692.0027914,1.000522,0.060816999999999996,0.101504,-0.18375000000000002,-0.1925,0.49875,-0.24086524408067816,0.12540192926045016,-0.182987430575855
1745334692.0096548,1.000156,0.063196,0.101992,0.13125,0.22750000000000004,0.8225000000000001,-0.23940368313358668,0.11458637825197311,-0.17275650394621456
1745334692.0138743,1.00589,0.062769,0.102968,0.13125,-0.18375000000000002,0.5075000000000001,-0.23940368313358668,0.11458637825197311,-0.17275650394621456
1745334692.017455,1.004426,0.062280999999999996,0.100101,-0.11375000000000002,-0.052500000000000005,0.47250000000000003,-0.23940368313358668,0.11458637825197311,-0.17275650394621456
1745334692.0211442,1.000034,0.061,0.09943,0.00875,-0.07875000000000001,0.49000000000000005,-0.23940368313358668,0.11458637825197311,-0.17275650394621456
1745334692.0272527,0.996862,0.063684,0.101687,-0.09625,0.47250000000000003,0.60375,-0.23940368313358668,0.11458637825197311,-0.17275650394621456
1745334692.030816,1.000034,0.060878,0.10126,-0.026250000000000002,-0.28,0.45500000000000007,-0.23940368313358668,0.11458637825197311,-0.17275650394621456
1745334692.0341866,0.998082,0.06161,0.101504,-0.10500000000000001,-0.20125,0.60375,-0.23940368313358668,0.11458637825197311,-0.17275650394621456
1745334692.0379603,0.999363,0.062647,0.103944,-0.07875000000000001,-0.14875000000000002,0.55125,-0.23940368313358668,0.11458637825197311,-0.17275650394621456
1745334692.0442054,0.998448,0.061915,0.101687,0.07,-0.035,0.12250000000000001,-0.23940368313358668,0.11458637825197311,-0.17275650394621456
1745334692.0483441,0.982649,0.055937,0.09394,0.11375000000000002,0.42875,1.12,-0.23940368313358668,0.11458637825197311,-0.17275650394621456
1745334692.0519583,0.973316,0.035502,0.122427,-0.08750000000000001,0.5775,0.48125000000000007,-0.23940368313358668,0.11458637825197311,-0.17275650394621456
1745334692.055284,1.0465769999999999,0.039467,0.13237,0.39375000000000004,-3.7187500000000004,-0.47250000000000003,-0.24554223911137094,0.12101724641917568,-0.17041800643086816
1745334692.058799,1.052128,0.098149,-0.016592,-0.48125000000000007,2.12625,1.8375000000000001,-0.24554223911137094,0.12101724641917568,-0.17041800643086816
1745334692.062217,0.945866,0.08845,0.190137,-0.5162500000000001,0.665,2.30125,-0.24554223911137094,0.12101724641917568,-0.17041800643086816
1745334692.0656583,0.958859,-0.050386,0.090707,0.6300000000000001,-2.5375,0.48125000000000007,-0.24554223911137094,0.12101724641917568,-0.17041800643086816
1745334692.0690758,1.03456,0.049532,0.096258,0.026250000000000002,2.10875,-3.4037500000000005,-0.24554223911137094,0.12101724641917568,-0.17041800643086816
1745334692.072756,1.0796999999999999,0.151524,0.182756,-0.14875000000000002,-2.0562500000000004,-0.28,-0.24554223911137094,0.12101724641917568,-0.17041800643086816
1745334692.080909,0.959042,0.042943999999999996,0.13908,-0.21875000000000003,1.9775000000000003,-0.45500000000000007,-0.24554223911137094,0.12101724641917568,-0.17041800643086816
1745334692.0846055,0.9456829999999999,0.064843,0.124745,0.44625000000000004,-1.7937500000000002,1.3650000000000002,-0.24554223911137094,0.12101724641917568,-0.17041800643086816
1745334692.0882235,0.9900909999999999,0.066185,0.108275,-0.29750000000000004,-1.5662500000000001,0.805,-0.24554223911137094,0.12101724641917568,-0.17041800643086816
1745334692.0917392,1.017907,0.053253,0.082289,-0.25375000000000003,-1.4787500000000002,0.12250000000000001,-0.24554223911137094,0.12101724641917568,-0.17041800643086816
1745334692.0952244,1.0298019999999999,0.019398,0.064721,0.32375000000000004,1.04125,-0.5075000000000001,-0.24554223911137094,0.12101724641917568,-0.17041800643086816
1745334692.0986679,1.021689,0.080764,0.14518,0.12250000000000001,1.9862500000000003,-0.7525000000000001,-0.24554223911137094,0.12101724641917568,-0.17041800643086816
1745334692.1020517,0.993629,0.123464,0.153476,-0.34125000000000005,-0.42000000000000004,1.2950000000000002,-0.24554223911137094,0.12101724641917568,-0.17041800643086816
1745334692.1058156,0.996313,0.048983,0.094733,-0.09625,-1.6625,1.8462500000000002,-0.24261911721718796,0.1189710610932476,-0.17480268927214265
1745334692.111954,0.966728,0.049958999999999996,0.122,0.043750000000000004,0.7875000000000001,-0.5425000000000001,-0.24261911721718796,0.1189710610932476,-0.17480268927214265
1745334692.1159642,1.016199,0.083875,0.117913,-0.11375000000000002,-1.26875,1.2425000000000002,-0.24261911721718796,0.1189710610932476,-0.17480268927214265
1745334692.1193714,1.027545,0.060451,0.0793,-0.23625000000000002,-0.09625,0.5775,-0.24261911721718796,0.1189710610932476,-0.17480268927214265
1745334692.1229322,1.000827,0.047885,0.101016,-0.31500000000000006,0.8925000000000001,-0.18375000000000002,-0.24261911721718796,0.1189710610932476,-0.17480268927214265
1745334692.1264026,1.000278,0.053741,0.127368,0.061250000000000006,0.07,0.385,-0.24261911721718796,0.1189710610932476,-0.17480268927214265
1745334692.1329048,1.006195,0.07015,0.102175,0.09625,-0.43750000000000006,0.7525000000000001,-0.24261911721718796,0.1189710610932476,-0.17480268927214265
1745334692.1364505,0.979721,0.063074,0.08295999999999999,-0.27125000000000005,0.18375000000000002,0.37625000000000003,-0.24261911721718796,0.1189710610932476,-0.17480268927214265
1745334692.140196,0.982161,0.057279,0.127734,-0.00875,-0.46375000000000005,0.39375000000000004,-0.24261911721718796,0.1189710610932476,-0.17480268927214265
1745334692.1461017,1.0380369999999999,0.057767,0.099308,0.0175,-0.88375,-0.17500000000000002,-0.24261911721718796,0.1189710610932476,-0.17480268927214265
1745334692.1502702,1.025715,0.074908,0.071431,-0.10500000000000001,0.8662500000000001,0.44625000000000004,-0.24261911721718796,0.1189710610932476,-0.17480268927214265
1745334692.1538155,0.980636,0.070089,0.1159,0.0175,0.6562500000000001,-0.061250000000000006,-0.24320374159602456,0.12189418298743057,-0.17509500146156096
1745334692.157363,0.970571,0.050752,0.10797,-0.035,-0.35000000000000003,1.1987500000000002,-0.24320374159602456,0.12189418298743057,-0.17509500146156096
1745334692.160756,0.993934,0.06466,0.11345999999999999,-0.09625,-0.7962500000000001,0.35000000000000003,-0.24320374159602456,0.12189418298743057,-0.17509500146156096
1745334692.1640675,1.008696,0.054655999999999996,0.102175,0.026250000000000002,-0.6300000000000001,0.11375000000000002,-0.24320374159602456,0.12189418298743057,-0.17509500146156096
1745334692.167503,1.019981,0.061975999999999996,0.082228,-0.16625,0.5950000000000001,0.28,-0.24320374159602456,0.12189418298743057,-0.17509500146156096
1745334692.171162,1.014857,0.064843,0.141093,-0.25375000000000003,0.5337500000000001,0.6475000000000001,-0.24320374159602456,0.12189418298743057,-0.17509500146156096
1745334692.1756213,0.98515,0.066673,0.08845,-0.13125,-0.7525000000000001,1.33875,-0.24320374159602456,0.12189418298743057,-0.17509500146156096
1745334692.1803243,0.988078,0.060695,0.125965,0.00875,0.13125,0.31500000000000006,-0.24320374159602456,0.12189418298743057,-0.17509500146156096
1745334692.1876163,1.001681,0.056608,0.10315099999999999,0.035,0.60375,0.6562500000000001,-0.24320374159602456,0.12189418298743057,-0.17509500146156096
1745334692.1912117,1.008452,0.069601,0.090219,0.00875,-0.8400000000000001,0.32375000000000004,-0.24320374159602456,0.12189418298743057,-0.17509500146156096
1745334692.1945145,1.001498,0.067039,0.102968,-0.08750000000000001,0.525,0.74375,-0.24320374159602456,0.12189418298743057,-0.17509500146156096
1745334692.1979449,0.998387,0.061793,0.129747,-0.08750000000000001,-0.49875,0.83125,-0.24320374159602456,0.12189418298743057,-0.17509500146156096
1745334692.201514,0.994544,0.055998,0.078995,0.043750000000000004,-1.16375,-0.10500000000000001,-0.24320374159602456,0.12189418298743057,-0.17509500146156096
1745334692.2050266,1.006744,0.058072,0.106567,0.043750000000000004,-0.11375000000000002,0.60375,-0.24115755627009647,0.12130955860859398,-0.17860274773458054
1745334692.2092302,0.9971059999999999,0.06527,0.099003,0.0,0.2625,0.7350000000000001,-0.24115755627009647,0.12130955860859398,-0.17860274773458054
1745334692.2142904,1.002352,0.066246,0.116022,0.035,-0.00875,0.39375000000000004,-0.24115755627009647,0.12130955860859398,-0.17860274773458054
1745334692.218425,1.007903,0.069174,0.096197,-0.10500000000000001,-0.0175,0.21875000000000003,-0.24115755627009647,0.12130955860859398,-0.17860274773458054
1745334692.221992,1.00223,0.065575,0.095099,-0.0175,0.2625,0.49875,-0.24115755627009647,0.12130955860859398,-0.17860274773458054
1745334692.22569,0.9931409999999999,0.064111,0.101382,-0.052500000000000005,0.14875000000000002,0.6825000000000001,-0.24115755627009647,0.12130955860859398,-0.17860274773458054
1745334692.2291973,0.992348,0.064538,0.10406599999999999,-0.043750000000000004,-0.23625000000000002,0.5337500000000001,-0.24115755627009647,0.12130955860859398,-0.17860274773458054
1745334692.232614,0.9931409999999999,0.065941,0.102785,-0.24500000000000002,-0.36750000000000005,0.5950000000000001,-0.24115755627009647,0.12130955860859398,-0.17860274773458054
1745334692.2360787,1.004609,0.062280999999999996,0.1037,-0.15750000000000003,-0.39375000000000004,0.5162500000000001,-0.24115755627009647,0.12130955860859398,-0.17860274773458054
1745334692.2431355,1.007842,0.059352999999999996,0.09943,0.07,0.42875,0.6300000000000001,-0.24115755627009647,0.12130955860859398,-0.17860274773458054
1745334692.2488022,0.995642,0.063989,0.101931,-0.10500000000000001,0.22750000000000004,0.052500000000000005,-0.24115755627009647,0.12130955860859398,-0.17860274773458054
1745334692.252759,0.994239,0.06344,0.105042,0.0,-0.45500000000000007,-0.17500000000000002,-0.24320374159602456,0.11838643671441099,-0.17158725518854137
1745334692.2562294,1.003206,0.059414,0.105652,-0.026250000000000002,-0.10500000000000001,0.5425000000000001,-0.24320374159602456,0.11838643671441099,-0.17158725518854137
1745334692.2596443,1.005707,0.064721,0.10113799999999999,-0.052500000000000005,0.0175,0.5075000000000001,-0.24320374159602456,0.11838643671441099,-0.17158725518854137
1745334692.2631154,1.004548,0.065514,0.10174799999999999,0.026250000000000002,-0.14,0.665,-0.24320374159602456,0.11838643671441099,-0.17158725518854137
1745334692.2665467,0.999485,0.061305,0.10406599999999999,-0.18375000000000002,-0.035,0.7000000000000001,-0.24320374159602456,0.11838643671441099,-0.17158725518854137
1745334692.270246,0.995825,0.061854,0.103395,-0.30625,0.14875000000000002,0.6562500000000001,-0.24320374159602456,0.11838643671441099,-0.17158725518854137
1745334692.2761357,0.99918,0.063196,0.099857,0.18375000000000002,0.0175,0.043750000000000004,-0.24320374159602456,0.11838643671441099,-0.17158725518854137
1745334692.280209,0.998814,0.061793,0.103822,-0.10500000000000001,-0.14,0.5075000000000001,-0.24320374159602456,0.11838643671441099,-0.17158725518854137
1745334692.28376,0.99491,0.065575,0.106811,-0.08750000000000001,-0.18375000000000002,0.47250000000000003,-0.24320374159602456,0.11838643671441099,-0.17158725518854137
1745334692.2872174,0.998509,0.065148,0.106872,-0.13125,-0.42000000000000004,0.6212500000000001,-0.24320374159602456,0.11838643671441099,-0.17158725518854137
1745334692.293643,1.001315,0.059902,0.100467,-0.043750000000000004,-0.49000000000000005,0.44625000000000004,-0.24320374159602456,0.11838643671441099,-0.17158725518854137
1745334692.297185,0.999607,0.060939,0.101565,-0.17500000000000002,-0.31500000000000006,0.23625000000000002,-0.24320374159602456,0.11838643671441099,-0.17158725518854137
1745334692.301359,0.9989359999999999,0.059962999999999995,0.09881999999999999,-0.21000000000000002,-0.77875,-0.5075000000000001,-0.24408067816427945,0.12364805612394036,-0.17670271850336158
1745334692.306048,1.002535,0.062098,0.10437099999999999,-0.08750000000000001,-2.07375,0.5075000000000001,-0.24408067816427945,0.12364805612394036,-0.17670271850336158
1745334692.3097954,1.007781,0.06039,0.101382,-0.10500000000000001,0.052500000000000005,0.6125,-0.24408067816427945,0.12364805612394036,-0.17670271850336158
1745334692.3129935,1.001925,0.064233,0.1037,0.10500000000000001,-0.2625,0.385,-0.24408067816427945,0.12364805612394036,-0.17670271850336158
1745334692.3165236,1.00162,0.063257,0.10126,-0.08750000000000001,-0.14,0.5162500000000001,-0.24408067816427945,0.12364805612394036,-0.17670271850336158
1745334692.3198864,0.997655,0.061,0.097051,-0.16625,-0.2625,0.4025,-0.24408067816427945,0.12364805612394036,-0.17670271850336158
1745334692.323073,1.003511,0.062098,0.10498099999999999,-0.12250000000000001,-0.17500000000000002,0.36750000000000005,-0.24408067816427945,0.12364805612394036,-0.17670271850336158
1745334692.3265157,1.001559,0.061854,0.10607899999999999,-0.07,-0.13125,0.5950000000000001,-0.24408067816427945,0.12364805612394036,-0.17670271850336158
1745334692.3298173,1.000278,0.06039,0.099613,-0.08750000000000001,-0.07875000000000001,0.5950000000000001,-0.24408067816427945,0.12364805612394036,-0.17670271850336158
1745334692.3332283,1.002901,0.062952,0.102114,-0.07875000000000001,-0.043750000000000004,0.29750000000000004,-0.24408067816427945,0.12364805612394036,-0.17670271850336158
1745334692.339328,1.000156,0.063928,0.102114,-0.052500000000000005,0.15750000000000003,0.34125000000000005,-0.24408067816427945,0.12364805612394036,-0.17670271850336158
1745334692.3431535,1.001925,0.051545,0.10284599999999999,-0.14875000000000002,-0.026250000000000002,0.60375,-0.24408067816427945,0.12364805612394036,-0.17670271850336158
1745334692.3493629,0.999973,0.063684,0.10126,-0.13125,-1.00625,-1.12,-0.24408067816427945,0.12364805612394036,-0.17670271850336158
1745334692.352836,0.998265,0.060024,0.102114,-0.035,-0.09625,0.9450000000000001,-0.23764980999707688,0.12598655363928676,-0.17261034785150542
1745334692.3561385,0.985089,0.063196,0.105286,-0.07875000000000001,-0.15750000000000003,0.55125,-0.23764980999707688,0.12598655363928676,-0.17261034785150542
1745334692.3595066,1.001681,0.061975999999999996,0.100162,0.00875,-0.32375000000000004,0.49000000000000005,-0.23764980999707688,0.12598655363928676,-0.17261034785150542
1745334692.3627589,0.99674,0.059231,0.079605,-0.10500000000000001,0.0175,0.43750000000000006,-0.23764980999707688,0.12598655363928676,-0.17261034785150542
1745334692.3660285,1.01016,0.055998,0.127002,0.00875,-0.41125000000000006,0.23625000000000002,-0.23764980999707688,0.12598655363928676,-0.17261034785150542
1745334692.372562,0.99247,0.074542,0.09089,-0.14,1.1900000000000002,0.69125,-0.23764980999707688,0.12598655363928676,-0.17261034785150542
1745334692.376225,0.9803919999999999,0.058316,0.130357,0.07875000000000001,-1.2600000000000002,0.9712500000000001,-0.23764980999707688,0.12598655363928676,-0.17261034785150542
1745334692.3797665,1.016138,0.035746,0.092293,0.1925,-0.49000000000000005,0.22750000000000004,-0.23764980999707688,0.12598655363928676,-0.17261034785150542
1745334692.3834238,1.023397,0.082289,0.101016,-0.17500000000000002,0.43750000000000006,0.08750000000000001,-0.23764980999707688,0.12598655363928676,-0.17261034785150542
1745334692.386996,0.99979,0.070272,0.10174799999999999,-0.18375000000000002,0.42875,0.44625000000000004,-0.23764980999707688,0.12598655363928676,-0.17261034785150542
1745334692.3905458,0.987468,0.061975999999999996,0.112911,0.0,-0.14875000000000002,0.9275000000000001,-0.23764980999707688,0.12598655363928676,-0.17261034785150542
1745334692.3939948,0.990579,0.034953,0.086254,-0.061250000000000006,-0.5075000000000001,0.32375000000000004,-0.23764980999707688,0.12598655363928676,-0.17261034785150542
1745334692.3973749,1.002169,0.067344,0.104005,-0.28,0.22750000000000004,-0.20125,-0.23764980999707688,0.12598655363928676,-0.17261034785150542
1745334692.4045877,1.000217,0.067832,0.098393,-0.11375000000000002,-2.1350000000000002,0.2625,-0.24378836597486114,0.12423268050277697,-0.17772581116632563
1745334692.4081018,0.9964959999999999,0.050263999999999996,0.096929,0.13125,-0.12250000000000001,0.22750000000000004,-0.24378836597486114,0.12423268050277697,-0.17772581116632563
1745334692.412925,1.004365,0.077287,0.09455,0.026250000000000002,0.30625,0.525,-0.24378836597486114,0.12423268050277697,-0.17772581116632563
1745334692.41642,0.997777,0.07625,0.11779099999999999,-0.14875000000000002,-0.1925,1.1812500000000001,-0.24378836597486114,0.12423268050277697,-0.17772581116632563
1745334692.4199588,0.992104,0.050996,0.099552,-0.08750000000000001,-0.6300000000000001,0.9450000000000001,-0.24378836597486114,0.12423268050277697,-0.17772581116632563
1745334692.4234126,1.007659,0.048494999999999996,0.091927,-0.0175,-0.22750000000000004,0.08750000000000001,-0.24378836597486114,0.12423268050277697,-0.17772581116632563
1745334692.427234,1.008696,0.071797,0.116022,-0.09625,0.34125000000000005,0.35000000000000003,-0.24378836597486114,0.12423268050277697,-0.17772581116632563
1745334692.4305396,1.010892,0.07679899999999999,0.107543,-0.18375000000000002,-0.385,1.0762500000000002,-0.24378836597486114,0.12423268050277697,-0.17772581116632563
1745334692.433813,1.002779,0.057034999999999995,0.089548,-0.061250000000000006,-0.16625,0.5075000000000001,-0.24378836597486114,0.12423268050277697,-0.17772581116632563
1745334692.4377759,0.992043,0.053863,0.10431,2.2225,0.12250000000000001,0.20125,-0.24378836597486114,0.12423268050277697,-0.17772581116632563
1745334692.4432123,1.003206,0.066185,0.109678,-0.23625000000000002,-0.23625000000000002,0.30625,-0.24378836597486114,0.12423268050277697,-0.17772581116632563
1745334692.4472377,1.001681,0.055754,0.096563,-0.14875000000000002,-0.45500000000000007,-2.0300000000000002,-0.24378836597486114,0.12423268050277697,-0.17772581116632563
1745334692.4505713,1.001986,0.058743,0.099003,-0.026250000000000002,-0.14875000000000002,-0.00875,-0.23911137094416837,0.1160479391990646,-0.18167202572347266
1745334692.457162,1.000583,0.065331,0.123281,0.0175,0.29750000000000004,1.2600000000000002,-0.23911137094416837,0.1160479391990646,-0.18167202572347266
1745334692.4604726,1.001681,0.06344,0.100589,-2.19625,-0.9012500000000001,0.28875,-0.23911137094416837,0.1160479391990646,-0.18167202572347266
1745334692.4636667,0.992165,0.057157,0.085766,-0.0175,-0.5775,0.42875,-0.23911137094416837,0.1160479391990646,-0.18167202572347266
1745334692.4668176,0.9888709999999999,0.06283,0.096441,-0.14,0.31500000000000006,0.1925,-0.23911137094416837,0.1160479391990646,-0.18167202572347266
1745334692.4701023,0.997777,0.082472,0.127673,-0.0175,-0.7175,0.7962500000000001,-0.23911137094416837,0.1160479391990646,-0.18167202572347266
1745334692.4760084,1.016565,0.061426999999999995,0.10022299999999999,-0.08750000000000001,-0.13125,0.48125000000000007,-0.23911137094416837,0.1160479391990646,-0.18167202572347266
1745334692.4797916,1.011258,0.042883,0.10284599999999999,0.035,0.29750000000000004,0.37625000000000003,-0.23911137094416837,0.1160479391990646,-0.18167202572347266
1745334692.4830124,0.996435,0.07124799999999999,0.097661,-0.09625,0.32375000000000004,0.60375,-0.23911137094416837,0.1160479391990646,-0.18167202572347266
1745334692.4864633,0.9998509999999999,0.064904,0.10083299999999999,-0.21000000000000002,-0.49875,0.36750000000000005,-0.23911137094416837,0.1160479391990646,-0.18167202572347266
1745334692.4898133,0.989298,0.067832,0.095709,0.0,0.00875,0.60375,-0.23911137094416837,0.1160479391990646,-0.18167202572347266
1745334692.4930394,1.001986,0.054839,0.11669299999999999,-0.07,-0.6475000000000001,0.28875,-0.23911137094416837,0.1160479391990646,-0.18167202572347266
1745334692.4962835,1.012417,0.062525,0.103517,0.061250000000000006,-0.46375000000000005,0.09625,-0.23911137094416837,0.1160479391990646,-0.18167202572347266
1745334692.499459,1.023214,0.063379,0.095404,-0.13125,0.035,0.0175,-0.23911137094416837,0.12101724641917568,-0.17641040631394328
1745334692.5026,1.01138,0.060268,0.114436,-0.11375000000000002,0.052500000000000005,0.8487500000000001,-0.23911137094416837,0.12101724641917568,-0.17641040631394328
1745334692.5066035,0.981124,0.062647,0.077531,-0.08750000000000001,0.5337500000000001,0.42875,-0.23911137094416837,0.12101724641917568,-0.17641040631394328
1745334692.5202782,0.987041,0.070577,0.095465,-0.10500000000000001,0.21875000000000003,0.60375,-0.23911137094416837,0.12101724641917568,-0.17641040631394328
1745334692.5237486,1.00162,0.068137,0.09729499999999999,0.00875,-0.45500000000000007,0.35000000000000003,-0.23911137094416837,0.12101724641917568,-0.17641040631394328
1745334692.527168,1.007598,0.046909,0.112667,0.11375000000000002,-0.7087500000000001,0.36750000000000005,-0.23911137094416837,0.12101724641917568,-0.17641040631394328
1745334692.5305195,1.001803,0.057583999999999996,0.085949,-0.21875000000000003,0.09625,0.3325,-0.23911137094416837,0.12101724641917568,-0.17641040631394328
1745334692.5336895,1.006439,0.067222,0.106262,-0.052500000000000005,-0.12250000000000001,0.10500000000000001,-0.23911137094416837,0.12101724641917568,-0.17641040631394328
1745334692.5367815,1.001437,0.07076,0.10437099999999999,-0.20125,0.061250000000000006,0.3325,-0.23911137094416837,0.12101724641917568,-0.17641040631394328
1745334692.5408988,0.9968009999999999,0.064294,0.109495,-0.18375000000000002,-0.43750000000000006,0.49875,-0.23911137094416837,0.12101724641917568,-0.17641040631394328
1745334692.545799,0.999607,0.061488,0.101809,-0.24500000000000002,0.34125000000000005,-1.1900000000000002,-0.23911137094416837,0.12101724641917568,-0.17641040631394328
1745334692.5498269,1.012051,0.062586,0.117486,-0.07,-0.9712500000000001,0.88375,-0.24174218064893305,0.11546331482022801,-0.1758257819351067
1745334692.5532615,1.015589,0.065148,0.09698999999999999,-0.12250000000000001,0.09625,0.63875,-0.24174218064893305,0.11546331482022801,-0.1758257819351067
1745334692.5567095,1.00772,0.068076,0.102968,-0.31500000000000006,0.7087500000000001,0.29750000000000004,-0.24174218064893305,0.11546331482022801,-0.1758257819351067
1745334692.5599928,0.986126,0.057828,0.10607899999999999,-0.09625,0.525,0.34125000000000005,-0.24174218064893305,0.11546331482022801,-0.1758257819351067
1745334692.5631852,0.974231,0.090463,0.099796,-0.14875000000000002,-0.16625,0.6300000000000001,-0.24174218064893305,0.11546331482022801,-0.1758257819351067
1745334692.5663483,0.9755119999999999,0.053253,0.091622,-0.09625,-1.0850000000000002,1.0325000000000002,-0.24174218064893305,0.11546331482022801,-0.1758257819351067
1745334692.5695229,0.982954,0.048129,0.072834,-0.14875000000000002,-0.6475000000000001,1.2512500000000002,-0.24174218064893305,0.11546331482022801,-0.1758257819351067
1745334692.5773618,1.025654,0.08845,0.100711,-0.30625,0.2625,-0.5425000000000001,-0.24174218064893305,0.11546331482022801,-0.1758257819351067
1745334692.5813375,1.007659,0.125721,0.148291,-0.8662500000000001,-0.45500000000000007,1.6362500000000002,-0.24174218064893305,0.11546331482022801,-0.1758257819351067
1745334692.5851305,1.013271,0.07911699999999999,0.066734,-1.54,-0.10500000000000001,1.7675,-0.24174218064893305,0.11546331482022801,-0.1758257819351067
1745334692.5887895,1.000644,0.109251,0.132126,-2.21375,1.5575,0.29750000000000004,-0.24174218064893305,0.11546331482022801,-0.1758257819351067
1745334692.5924013,0.984601,0.084729,0.123891,-2.1612500000000003,-0.32375000000000004,0.30625,-0.24174218064893305,0.11546331482022801,-0.1758257819351067
1745334692.5958667,0.985943,0.089243,0.159027,-2.1350000000000002,-0.11375000000000002,-0.5687500000000001,-0.24174218064893305,0.1180941245249927,-0.17743349897690733
1745334692.5993207,1.066158,0.08265499999999999,0.19093,-2.63375,0.24500000000000002,-0.5075000000000001,-0.23911137094416837,0.1180941245249927,-0.17743349897690733
1745334692.6025527,1.11142,0.110471,0.173179,-3.4562500000000003,1.225,-0.9362500000000001,-0.23911137094416837,0.1180941245249927,-0.17743349897690733
1745334692.6058135,1.087996,0.144021,0.157441,-4.9262500000000005,5.04875,-0.20125,-0.23911137094416837,0.1180941245249927,-0.17743349897690733
1745334692.6114697,0.958249,0.183549,0.210023,-7.5512500000000005,4.69,1.1987500000000002,-0.23911137094416837,0.1180941245249927,-0.17743349897690733
1745334692.6155994,0.997533,0.181231,0.229116,-11.541250000000002,3.2637500000000004,2.6162500000000004,-0.23911137094416837,0.1180941245249927,-0.17743349897690733
1745334692.619368,1.127524,0.15555,0.202459,-13.746250000000002,4.22625,4.9350000000000005,-0.23911137094416837,0.1180941245249927,-0.17743349897690733
1745334692.622853,1.194929,0.086864,0.246745,-16.82625,4.550000000000001,5.11,-0.23911137094416837,0.1180941245249927,-0.17743349897690733
1745334692.6293433,1.209996,0.045628,0.255773,-19.110000000000003,11.488750000000001,0.77875,-0.23911137094416837,0.1180941245249927,-0.17743349897690733
1745334692.6329951,1.304302,0.029219,0.29822899999999997,-19.53875,14.008750000000001,-1.225,-0.23911137094416837,0.1180941245249927,-0.17743349897690733
1745334692.6361687,1.204079,-0.058743,0.265228,-19.407500000000002,14.997500000000002,-2.10875,-0.23911137094416837,0.1180941245249927,-0.17743349897690733
1745334692.6394253,1.208288,-0.012565999999999999,0.232288,-18.970000000000002,17.648750000000003,-3.6575,-0.23911137094416837,0.1180941245249927,-0.17743349897690733
1745334692.6444523,1.187975,0.049349,0.260104,-18.900000000000002,20.0725,-2.19625,-0.23911137094416837,0.1180941245249927,-0.17743349897690733
1745334692.6481686,1.117947,0.028182,0.290787,-18.313750000000002,18.996250000000003,1.09375,-0.24700380005846242,0.12540192926045016,-0.16866413329435836
1745334692.6519306,1.169614,0.013359,0.244671,-18.0775,18.62875,0.07875000000000001,-0.24700380005846242,0.12540192926045016,-0.16866413329435836
1745334692.655197,1.196881,0.00244,0.267058,-17.045,19.486250000000002,-0.37625000000000003,-0.24700380005846242,0.12540192926045016,-0.16866413329435836
1745334692.658366,1.238727,0.050508,0.254187,-17.2025,20.475,-0.69125,-0.24700380005846242,0.12540192926045016,-0.16866413329435836
1745334692.6615531,1.2777669999999999,0.031537,0.265228,-17.0975,21.192500000000003,-1.9862500000000003,-0.24700380005846242,0.12540192926045016,-0.16866413329435836
1745334692.664779,1.255685,0.049532,0.25925,-16.861250000000002,21.35,-2.4675000000000002,-0.24700380005846242,0.12540192926045016,-0.16866413329435836
1745334692.667967,1.258552,0.078019,0.27419499999999997,-17.57,21.883750000000003,-2.56375,-0.24700380005846242,0.12540192926045016,-0.16866413329435836
1745334692.672161,1.2768519999999999,0.09467199999999999,0.267668,-18.121250000000003,22.933750000000003,-3.0100000000000002,-0.24700380005846242,0.12540192926045016,-0.16866413329435836
1745334692.6761968,1.40666,0.034953,0.238266,-18.392500000000002,28.288750000000004,-8.680000000000001,-0.24700380005846242,0.12540192926045016,-0.16866413329435836
1745334692.6827893,1.356518,0.043127,0.205875,-19.810000000000002,33.67,-11.690000000000001,-0.24700380005846242,0.12540192926045016,-0.16866413329435836
1745334692.6860375,1.271484,0.089304,0.230458,-20.098750000000003,34.378750000000004,-12.398750000000001,-0.24700380005846242,0.12540192926045016,-0.16866413329435836
1745334692.6893365,1.205543,0.040199,0.247965,-20.685000000000002,35.51625000000001,-12.845,-0.24700380005846242,0.12540192926045016,-0.16866413329435836
1745334692.6924083,1.201578,0.027389,0.27266999999999997,-20.781250000000004,33.853750000000005,-13.238750000000001,-0.24700380005846242,0.12540192926045016,-0.16866413329435836
1745334692.6955998,1.219146,0.042761,0.226432,-21.411250000000003,32.978750000000005,-14.315000000000001,-0.23881905875475007,0.1180941245249927,-0.17027185033615902
1745334692.698611,1.221647,0.019703,0.253821,-21.035000000000004,34.475,-13.92125,-0.23881905875475007,0.1180941245249927,-0.17027185033615902
1745334692.7017584,1.253611,0.034038,0.226981,-21.953750000000003,33.38125,-14.14,-0.23881905875475007,0.1180941245249927,-0.17027185033615902
1745334692.7056835,1.277279,-0.000732,0.210816,-22.715000000000003,33.853750000000005,-14.673750000000002,-0.23881905875475007,0.1180941245249927,-0.17027185033615902
1745334692.7102103,1.2688,0.019337,0.25986,-23.485000000000003,34.1075,-11.68125,-0.23881905875475007,0.1180941245249927,-0.17027185033615902
1745334692.714342,1.277218,-0.039467,0.243329,-24.01,32.847500000000004,-11.646250000000002,-0.23881905875475007,0.1180941245249927,-0.17027185033615902
1745334692.7177017,1.275266,-0.027877,0.21984399999999998,-24.500000000000004,33.118750000000006,-11.620000000000001,-0.23881905875475007,0.1180941245249927,-0.17027185033615902
1745334692.7209365,1.297165,-0.042578,0.246806,-24.937500000000004,33.29375,-10.937500000000002,-0.23881905875475007,0.1180941245249927,-0.17027185033615902
1745334692.7243564,1.336327,-0.05307,0.20874199999999998,-25.270000000000003,32.690000000000005,-11.165000000000001,-0.23881905875475007,0.1180941245249927,-0.17027185033615902
1745334692.7277532,1.319003,-0.044347,0.187514,-26.040000000000003,33.45125,-11.891250000000001,-0.23881905875475007,0.1180941245249927,-0.17027185033615902
1745334692.7311091,1.287161,-0.042151,0.213805,-26.34625,34.97375,-11.392500000000002,-0.23881905875475007,0.1180941245249927,-0.17027185033615902
1745334692.7374442,1.221037,-0.066063,0.21289,-26.915000000000003,30.240000000000002,-12.031250000000002,-0.23881905875475007,0.1180941245249927,-0.17027185033615902
1745334692.7413542,1.17852,-0.069784,0.177815,-26.661250000000003,30.187500000000004,-11.68125,-0.23881905875475007,0.1180941245249927,-0.17027185033615902
1745334692.7449675,1.142957,-0.032757,0.180072,-26.792500000000004,27.9825,-12.503750000000002,-0.22332651271558024,0.10435545162233265,-0.16822566501023092
1745334692.7485774,1.099342,-0.043432,0.18971,-26.880000000000003,25.996250000000003,-9.992500000000001,-0.22332651271558024,0.10435545162233265,-0.16822566501023092
1745334692.7520392,1.054751,-0.011712,0.17580199999999999,-27.300000000000004,21.883750000000003,-9.49375,-0.22332651271558024,0.10435545162233265,-0.16822566501023092
1745334692.7553058,1.050603,0.023607,0.168482,-28.140000000000004,19.845000000000002,-9.7825,-0.22332651271558024,0.10435545162233265,-0.16822566501023092
1745334692.7586627,1.0931199999999999,0.020739999999999998,0.20227599999999998,-28.8225,15.697500000000002,-6.072500000000001,-0.22332651271558024,0.10435545162233265,-0.16822566501023092
1745334692.7620513,1.1238029999999999,-0.10052799999999999,0.091561,-28.630000000000003,13.763750000000002,-7.5425,-0.22332651271558024,0.10435545162233265,-0.16822566501023092
1745334692.765411,1.149606,-0.089182,0.085095,-29.347500000000004,15.242500000000001,-10.36875,-0.22332651271558024,0.10435545162233265,-0.16822566501023092
1745334692.7691333,1.1791909999999999,0.009577,0.121207,-31.027500000000003,15.575000000000001,-8.61875,-0.22332651271558024,0.10435545162233265,-0.16822566501023092
1745334692.7769308,1.187304,-0.110044,0.11315499999999999,-31.570000000000004,12.932500000000001,-4.978750000000001,-0.22332651271558024,0.10435545162233265,-0.16822566501023092
1745334692.7801275,1.074332,-0.17702199999999998,0.13078399999999998,-30.161250000000003,13.308750000000002,-11.742500000000001,-0.22332651271558024,0.10435545162233265,-0.16822566501023092
1745334692.7833014,1.1852909999999999,-0.058682,0.16994599999999999,-28.726250000000004,8.61875,-5.215000000000001,-0.22332651271558024,0.10435545162233265,-0.16822566501023092
1745334692.7895575,1.1721759999999999,-0.07503,0.047702,-28.288750000000004,9.3975,-2.8262500000000004,-0.22332651271558024,0.10435545162233265,-0.16822566501023092
1745334692.792695,1.260016,-0.076311,0.145668,-28.90125,9.87875,-7.892500000000001,-0.22332651271558024,0.07600116924875767,-0.16135632855890092
1745334692.7957397,1.339438,-0.04331,0.187697,-29.251250000000002,9.922500000000001,-5.862500000000001,-0.21572639579070446,0.07600116924875767,-0.16135632855890092
1745334692.7988799,1.270203,-0.074969,0.155855,-30.616250000000004,8.785,-5.635000000000001,-0.21572639579070446,0.07600116924875767,-0.16135632855890092
1745334692.801883,1.20109,-0.093696,0.205265,-32.08625,7.376250000000001,-5.923750000000001,-0.21572639579070446,0.07600116924875767,-0.16135632855890092
1745334692.8079803,1.223233,0.079483,0.222833,-34.2475,2.7037500000000003,-0.5075000000000001,-0.21572639579070446,0.07600116924875767,-0.16135632855890092
1745334692.8114896,1.11508,0.128771,0.254309,-36.89,-0.09625,5.696250000000001,-0.21572639579070446,0.07600116924875767,-0.16135632855890092
1745334692.8148463,1.159854,-0.051545,0.293715,-37.7475,-5.643750000000001,8.120000000000001,-0.21572639579070446,0.07600116924875767,-0.16135632855890092
1745334692.818093,1.245437,-0.08204499999999999,0.223931,-38.185,-5.95,7.30625,-0.21572639579070446,0.07600116924875767,-0.16135632855890092
1745334692.8213658,1.3481,-0.08680299999999999,0.244854,-39.112500000000004,-4.48,6.711250000000001,-0.21572639579070446,0.07600116924875767,-0.16135632855890092
1745334692.824528,1.3711579999999999,-0.10052799999999999,0.251503,-39.87375,-3.5875000000000004,6.4750000000000005,-0.21572639579070446,0.07600116924875767,-0.16135632855890092
1745334692.827605,1.346331,-0.123403,0.259067,-40.53,-2.86125,6.361250000000001,-0.21572639579070446,0.07600116924875767,-0.16135632855890092
1745334692.8307211,1.359202,-0.10675,0.306525,-40.87125,-5.95875,6.501250000000001,-0.21572639579070446,0.07600116924875767,-0.16135632855890092
1745334692.8338084,1.340109,-0.129625,0.307379,-41.18625,-5.73125,7.393750000000001,-0.21572639579070446,0.07600116924875767,-0.16135632855890092
1745334692.8368957,1.3604829999999999,-0.139324,0.290787,-41.160000000000004,-7.253750000000001,8.505,-0.21572639579070446,0.07600116924875767,-0.16135632855890092
1745334692.8453164,1.353102,-0.112362,0.261934,-40.5825,-4.978750000000001,11.4975,-0.20286465945629933,0.06343174510377082,-0.15287927506577023
1745334692.8487542,1.307108,-0.129503,0.279868,-40.74,-6.65875,13.781250000000002,-0.20286465945629933,0.06343174510377082,-0.15287927506577023
1745334692.8518639,1.312842,-0.111264,0.25193,-40.6525,-8.575000000000001,15.085,-0.20286465945629933,0.06343174510377082,-0.15287927506577023
1745334692.855225,1.278621,-0.127551,0.234423,-40.775000000000006,-6.195,15.785000000000002,-0.20286465945629933,0.06343174510377082,-0.15287927506577023
1745334692.8582864,1.265689,-0.122976,0.264801,-40.6525,-5.76625,16.056250000000002,-0.20286465945629933,0.06343174510377082,-0.15287927506577023
1745334692.861438,1.2774619999999999,-0.10760399999999999,0.24265799999999998,-40.923750000000005,-5.171250000000001,16.091250000000002,-0.20286465945629933,0.06343174510377082,-0.15287927506577023
1745334692.8644903,1.293566,-0.093086,0.23832699999999998,-41.25625,-4.751250000000001,15.417500000000002,-0.20286465945629933,0.06343174510377082,-0.15287927506577023
1745334692.867494,1.286368,-0.078873,0.254858,-41.7725,-3.2987500000000005,15.548750000000002,-0.20286465945629933,0.06343174510377082,-0.15287927506577023
1745334692.8704581,1.282769,-0.120414,0.247477,-42.175000000000004,-2.7387500000000005,14.315000000000001,-0.20286465945629933,0.06343174510377082,-0.15287927506577023
1745334692.8749669,1.28222,-0.084912,0.24705,-42.77875,-1.12,13.002500000000001,-0.20286465945629933,0.06343174510377082,-0.15287927506577023
1745334692.8793242,1.206275,-0.067893,0.265594,-44.68625,-0.42000000000000004,12.783750000000001,-0.20286465945629933,0.06343174510377082,-0.15287927506577023
1745334692.8828058,1.220915,-0.074664,0.26779,-45.42125000000001,-0.8400000000000001,11.908750000000001,-0.20286465945629933,0.06343174510377082,-0.15287927506577023
1745334692.8859007,1.229882,-0.084851,0.231495,-45.99875,1.00625,10.465000000000002,-0.20286465945629933,0.06343174510377082,-0.15287927506577023
1745334692.8890343,1.2159739999999999,-0.08003199999999999,0.270901,-46.865,1.4000000000000001,10.01875,-0.20286465945629933,0.06343174510377082,-0.15287927506577023
1745334692.8920467,1.207495,-0.088755,0.280051,-47.705000000000005,0.7612500000000001,10.22,-0.19877228880444314,0.042677579655071615,-0.1468868751826951
1745334692.8981907,1.23281,-0.094916,0.292495,-49.20125,0.20125,11.5675,-0.19877228880444314,0.042677579655071615,-0.1468868751826951
1745334692.9013958,1.258613,-0.106018,0.262788,-50.07625,-0.25375000000000003,10.027500000000002,-0.19877228880444314,0.042677579655071615,-0.1468868751826951
1745334692.9068348,1.267519,-0.11486299999999999,0.293776,-50.846250000000005,-0.34125000000000005,9.826250000000002,-0.19877228880444314,0.042677579655071615,-0.1468868751826951
1745334692.910409,1.252086,-0.10900699999999999,0.299754,-51.59,-1.2512500000000002,8.356250000000001,-0.19877228880444314,0.042677579655071615,-0.1468868751826951
1745334692.9138548,1.272094,-0.10437099999999999,0.23680199999999998,-52.080000000000005,-0.9187500000000001,8.041250000000002,-0.19877228880444314,0.042677579655071615,-0.1468868751826951
1745334692.9170928,1.258979,-0.109678,0.24942899999999998,-52.71000000000001,-0.44625000000000004,7.315,-0.19877228880444314,0.042677579655071615,-0.1468868751826951
1745334692.9203992,1.2324439999999999,-0.103639,0.244915,-53.243750000000006,0.32375000000000004,6.9125000000000005,-0.19877228880444314,0.042677579655071615,-0.1468868751826951
1745334692.9235973,1.211094,-0.109434,0.248331,-53.760000000000005,0.07875000000000001,6.483750000000001,-0.19877228880444314,0.042677579655071615,-0.1468868751826951
1745334692.9267092,1.205482,-0.117913,0.21594,-53.57625,0.1925,5.932500000000001,-0.19877228880444314,0.042677579655071615,-0.1468868751826951
1745334692.9298496,1.214388,-0.123342,0.220332,-54.075,0.22750000000000004,5.180000000000001,-0.19877228880444314,0.042677579655071615,-0.1468868751826951
1745334692.9329443,1.216401,-0.134017,0.220637,-54.60000000000001,0.8925000000000001,4.742500000000001,-0.19877228880444314,0.042677579655071615,-0.1468868751826951
1745334692.935995,1.228113,-0.13047899999999998,0.214537,-54.81875000000001,1.12,4.1825,-0.19877228880444314,0.042677579655071615,-0.1468868751826951
1745334692.9407954,1.246535,-0.142618,0.199653,-54.98500000000001,2.23125,1.8375000000000001,-0.19321835720549546,0.01169248757673195,-0.1411867874890383
1745334692.9441845,1.25416,-0.125111,0.199043,-54.74875000000001,2.8262500000000004,2.1875,-0.19321835720549546,0.01169248757673195,-0.1411867874890383
1745334692.9507196,1.2692269999999999,-0.120353,0.21551299999999998,-55.1775,3.9725000000000006,0.5775,-0.19321835720549546,0.01169248757673195,-0.1411867874890383
1745334692.9537969,1.254648,-0.132553,0.218075,-55.09,4.768750000000001,-3.00125,-0.19321835720549546,0.01169248757673195,-0.1411867874890383
1745334692.956807,1.240435,-0.14804699999999998,0.2196,-55.02,4.89125,-3.7450000000000006,-0.19321835720549546,0.01169248757673195,-0.1411867874890383
1745334692.9598536,1.243058,-0.13694499999999998,0.22661499999999998,-54.53000000000001,5.608750000000001,-5.95875,-0.19321835720549546,0.01169248757673195,-0.1411867874890383
1745334692.9629548,1.208898,-0.121573,0.233874,-54.5825,5.53,-7.682500000000001,-0.19321835720549546,0.01169248757673195,-0.1411867874890383
1745334692.966184,1.177727,-0.130296,0.22783499999999998,-54.81,5.285,-8.89,-0.19321835720549546,0.01169248757673195,-0.1411867874890383
1745334692.9723167,1.138077,-0.107055,0.242475,-54.556250000000006,4.523750000000001,-11.812500000000002,-0.19321835720549546,0.01169248757673195,-0.1411867874890383
1745334692.979881,1.065426,-0.044835,0.256017,-55.300000000000004,2.9487500000000004,-12.845,-0.19321835720549546,0.01169248757673195,-0.1411867874890383
1745334692.9831097,1.043771,-0.075884,0.221857,-57.041250000000005,0.9100000000000001,-16.450000000000003,-0.19321835720549546,0.01169248757673195,-0.1411867874890383
1745334692.9863243,1.022787,-0.050996,0.23003099999999999,-57.38250000000001,-0.21000000000000002,-18.095000000000002,-0.19321835720549546,0.01169248757673195,-0.1411867874890383
1745334692.9894302,1.025776,-0.010614,0.231678,-57.68000000000001,-2.21375,-20.51,-0.19321835720549546,0.01169248757673195,-0.1411867874890383
1745334692.9924748,1.027545,0.008235,0.211975,-58.45,-3.2550000000000003,-19.78375,-0.19175679625840397,-0.021631102016954108,-0.1435252850043847
1745334692.9955301,1.02541,0.000549,0.245891,-59.6225,-5.8012500000000005,-20.88625,-0.19175679625840397,-0.021631102016954108,-0.1435252850043847
1745334692.9986205,1.0248,0.00366,0.23771699999999998,-60.87375000000001,-6.23,-21.367500000000003,-0.19175679625840397,-0.021631102016954108,-0.1435252850043847
1745334693.0047054,1.014979,-0.011224,0.222162,-62.895,-8.225000000000001,-22.67125,-0.19175679625840397,-0.021631102016954108,-0.1435252850043847
1745334693.0101695,1.0416969999999999,-0.039345,0.232532,-64.11125000000001,-11.620000000000001,-25.97875,-0.19175679625840397,-0.021631102016954108,-0.1435252850043847
1745334693.0141501,1.073234,-0.050996,0.18318299999999998,-65.10875,-12.110000000000001,-27.833750000000002,-0.19175679625840397,-0.021631102016954108,-0.1435252850043847
1745334693.0178576,1.033645,-0.065514,0.202398,-65.94875,-12.64375,-28.542500000000004,-0.19175679625840397,-0.021631102016954108,-0.1435252850043847
1745334693.0214684,1.006622,-0.050996,0.209596,-66.43,-14.595,-28.875000000000004,-0.19175679625840397,-0.021631102016954108,-0.1435252850043847
1745334693.025023,1.023153,-0.078202,0.18995399999999998,-67.6375,-16.37125,-29.111250000000002,-0.19175679625840397,-0.021631102016954108,-0.1435252850043847
1745334693.0284622,1.011685,-0.073383,0.168482,-68.06625000000001,-16.75625,-28.53375,-0.19175679625840397,-0.021631102016954108,-0.1435252850043847
1745334693.0318894,1.026386,-0.075335,0.17019,-68.9675,-16.87,-28.28,-0.19175679625840397,-0.021631102016954108,-0.1435252850043847
1745334693.0351849,1.044686,-0.08619299999999999,0.18318299999999998,-69.16875,-17.841250000000002,-27.527500000000003,-0.19175679625840397,-0.021631102016954108,-0.1435252850043847
1745334693.0385263,1.056032,-0.096868,0.164029,-69.6675,-19.005000000000003,-27.781250000000004,-0.19175679625840397,-0.021631102016954108,-0.1435252850043847
1745334693.042676,1.070733,-0.10376099999999999,0.122915,-69.59750000000001,-17.876250000000002,-26.38125,-0.188833674364221,-0.05261619409529377,-0.14966384098216895
1745334693.0471835,1.05225,-0.092537,0.122183,-70.19250000000001,-16.66,-27.62375,-0.188833674364221,-0.05261619409529377,-0.14966384098216895
1745334693.0512147,1.067683,-0.080886,0.148474,-70.5775,-17.648750000000003,-28.02625,-0.188833674364221,-0.05261619409529377,-0.14966384098216895
1745334693.0573885,1.0845799999999999,-0.055022,0.143655,-71.12875000000001,-17.797500000000003,-27.8075,-0.188833674364221,-0.05261619409529377,-0.14966384098216895
1745334693.060853,1.056886,-0.065026,0.118645,-72.73875000000001,-16.852500000000003,-29.058750000000003,-0.188833674364221,-0.05261619409529377,-0.14966384098216895
1745334693.0641885,1.040843,-0.048678,0.173789,-72.78250000000001,-16.380000000000003,-28.481250000000003,-0.188833674364221,-0.05261619409529377,-0.14966384098216895
1745334693.0674992,1.000644,-0.044347,0.13047899999999998,-73.35125000000001,-18.602500000000003,-27.895000000000003,-0.188833674364221,-0.05261619409529377,-0.14966384098216895
1745334693.070759,0.97966,-0.049715,0.110593,-74.00750000000001,-19.0225,-27.790000000000003,-0.188833674364221,-0.05261619409529377,-0.14966384098216895
1745334693.0743093,0.95709,-0.04453,0.148413,-74.70750000000001,-19.1975,-28.000000000000004,-0.188833674364221,-0.05261619409529377,-0.14966384098216895
1745334693.080101,0.9517829999999999,-0.037087999999999996,0.125904,-75.495,-20.457500000000003,-27.676250000000003,-0.188833674364221,-0.05261619409529377,-0.14966384098216895
1745334693.0841303,0.96685,-0.036417,0.139507,-75.69625,-21.8225,-27.597500000000004,-0.188833674364221,-0.05261619409529377,-0.14966384098216895
1745334693.0876467,0.9840519999999999,-0.076433,0.111996,-75.66125000000001,-23.065,-28.341250000000002,-0.188833674364221,-0.05261619409529377,-0.14966384098216895
1745334693.0912614,0.996435,-0.101931,0.120841,-74.85625,-22.470000000000002,-27.58875,-0.20374159602455422,-0.08155510084770536,-0.14966384098216895
1745334693.094795,1.026203,-0.10614,0.09698999999999999,-74.87375,-22.89,-30.345000000000002,-0.20374159602455422,-0.08155510084770536,-0.14966384098216895
1745334693.0982006,1.03395,-0.07740899999999999,0.12364699999999999,-74.20875000000001,-22.84625,-31.088750000000005,-0.20374159602455422,-0.08155510084770536,-0.14966384098216895
1745334693.1016471,1.063718,-0.087779,0.105896,-73.885,-23.065,-31.202500000000004,-0.20374159602455422,-0.08155510084770536,-0.14966384098216895
1745334693.104998,1.070489,-0.075701,0.08558299999999999,-73.045,-23.633750000000003,-30.887500000000003,-0.20374159602455422,-0.08155510084770536,-0.14966384098216895
1745334693.1115212,1.046943,-0.086681,0.076311,-72.38000000000001,-22.566250000000004,-30.563750000000002,-0.20374159602455422,-0.08155510084770536,-0.14966384098216895
1745334693.1165016,0.998875,-0.087047,0.093147,-70.4375,-24.106250000000003,-30.441250000000004,-0.20374159602455422,-0.08155510084770536,-0.14966384098216895
1745334693.1205518,0.9949709999999999,-0.085217,0.073078,-69.055,-23.730000000000004,-31.167500000000004,-0.20374159602455422,-0.08155510084770536,-0.14966384098216895
1745334693.1239665,0.988078,-0.066368,0.079849,-68.075,-23.5025,-31.001250000000002,-0.20374159602455422,-0.08155510084770536,-0.14966384098216895
1745334693.1275759,0.946659,-0.06649,0.07356599999999999,-67.00750000000001,-23.24875,-30.493750000000002,-0.20374159602455422,-0.08155510084770536,-0.14966384098216895
1745334693.131054,0.9332389999999999,-0.067649,0.061426999999999995,-65.80875,-23.135,-30.397500000000004,-0.20374159602455422,-0.08155510084770536,-0.14966384098216895
1745334693.1344135,0.939583,-0.051301,0.068381,-64.61,-23.038750000000004,-30.590000000000003,-0.20374159602455422,-0.08155510084770536,-0.14966384098216895
1745334693.1378043,0.937692,-0.044774,0.058682,-63.14000000000001,-22.986250000000002,-30.555000000000003,-0.2087109032446653,-0.09646302250803858,-0.160479391990646
1745334693.1411278,0.9259189999999999,-0.053375,0.033916,-62.03750000000001,-21.46375,-29.172500000000003,-0.2087109032446653,-0.09646302250803858,-0.160479391990646
1745334693.144675,0.940925,-0.036417,0.031659,-61.486250000000005,-20.378750000000004,-29.6625,-0.2087109032446653,-0.09646302250803858,-0.160479391990646
1745334693.1504254,0.9575779999999999,-0.03843,0.058682,-59.85875000000001,-18.130000000000003,-29.680000000000003,-0.2087109032446653,-0.09646302250803858,-0.160479391990646
1745334693.154155,0.978989,-0.044286,0.041602,-58.83500000000001,-16.275000000000002,-31.587500000000002,-0.2087109032446653,-0.09646302250803858,-0.160479391990646
1745334693.1575725,1.049444,-0.027938,0.076128,-57.785000000000004,-13.055000000000001,-32.392500000000005,-0.2087109032446653,-0.09646302250803858,-0.160479391990646
1745334693.161063,1.031754,-0.042395,0.055632,-56.57750000000001,-11.103750000000002,-32.0075,-0.2087109032446653,-0.09646302250803858,-0.160479391990646
1745334693.1666768,0.997777,-0.051667,0.035441,-55.42250000000001,-5.460000000000001,-31.543750000000003,-0.2087109032446653,-0.09646302250803858,-0.160479391990646
1745334693.170131,0.967216,-0.067771,0.063806,-54.048750000000005,-3.64875,-31.535000000000004,-0.2087109032446653,-0.09646302250803858,-0.160479391990646
1745334693.1735227,0.955565,-0.056424999999999996,0.08265499999999999,-53.22625000000001,-1.2950000000000002,-30.555000000000003,-0.2087109032446653,-0.09646302250803858,-0.160479391990646
1745334693.1768413,0.9672769999999999,-0.046055,0.111447,-53.243750000000006,0.9537500000000001,-30.275000000000002,-0.2087109032446653,-0.09646302250803858,-0.160479391990646
1745334693.1806755,0.936777,-0.02745,0.128283,-52.99,3.9287500000000004,-29.251250000000002,-0.2087109032446653,-0.09646302250803858,-0.160479391990646
1745334693.1860096,0.930555,0.025436999999999998,0.167323,-54.39875000000001,6.0025,-27.020000000000003,-0.2087109032446653,-0.09646302250803858,-0.160479391990646
1745334693.1898475,0.901397,0.023058,0.187331,-56.21875000000001,7.796250000000001,-25.55,-0.22332651271558024,-0.10786319789535223,-0.15492546039169833
1745334693.1932604,0.8757159999999999,-0.000183,0.222467,-57.22500000000001,7.577500000000001,-24.972500000000004,-0.22332651271558024,-0.10786319789535223,-0.15492546039169833
1745334693.1968267,0.860039,-0.018239,0.21801399999999999,-61.862500000000004,8.60125,-25.585,-0.22332651271558024,-0.10786319789535223,-0.15492546039169833
1745334693.2002532,0.840031,-0.022997,0.275537,-64.5925,8.74125,-26.731250000000003,-0.22332651271558024,-0.10786319789535223,-0.15492546039169833
1745334693.203567,0.786961,-0.00549,0.290421,-65.17875000000001,7.796250000000001,-28.306250000000002,-0.22332651271558024,-0.10786319789535223,-0.15492546039169833
1745334693.2069063,0.793549,0.396195,0.175558,-68.45125,5.52125,-32.5675,-0.22332651271558024,-0.10786319789535223,-0.15492546039169833
1745334693.2101521,0.842898,0.206546,0.297192,-74.85625,10.6925,-26.180000000000003,-0.22332651271558024,-0.10786319789535223,-0.15492546039169833
1745334693.213599,0.770308,0.22600499999999998,0.527406,-76.78125000000001,7.74375,-19.486250000000002,-0.22332651271558024,-0.10786319789535223,-0.15492546039169833
1745334693.2202668,1.081774,-0.10052799999999999,0.389973,-82.68750000000001,6.8775,-17.89375,-0.22332651271558024,-0.10786319789535223,-0.15492546039169833
1745334693.2242525,0.747006,0.08588799999999999,0.052032999999999996,-82.6525,7.892500000000001,-17.2025,-0.22332651271558024,-0.10786319789535223,-0.15492546039169833
1745334693.2275624,0.752008,-0.01464,0.16226,-83.62375,7.052500000000001,-15.548750000000002,-0.22332651271558024,-0.10786319789535223,-0.15492546039169833
1745334693.2311404,0.971425,0.223138,0.284931,-85.35625,-0.7612500000000001,-13.212500000000002,-0.22332651271558024,-0.10786319789535223,-0.15492546039169833
1745334693.2345717,1.149545,0.122671,0.037393,-89.11875,1.7850000000000001,-9.61625,-0.22332651271558024,-0.10786319789535223,-0.15492546039169833
1745334693.237955,1.159732,0.061732,0.15189,-89.94125000000001,6.0287500000000005,-9.738750000000001,-0.22303420052616194,-0.12364805612394036,-0.17334112832505116
1745334693.2413619,1.097573,0.066124,0.337452,-91.65625000000001,0.39375000000000004,-10.03625,-0.22303420052616194,-0.12364805612394036,-0.17334112832505116
1745334693.2446961,0.9459879999999999,0.035502,0.035502,-92.76750000000001,1.88125,-10.920000000000002,-0.22303420052616194,-0.12364805612394036,-0.17334112832505116
1745334693.2481124,0.9113399999999999,0.023363,0.20319099999999998,-93.59875000000001,-3.0450000000000004,-14.017500000000002,-0.22303420052616194,-0.12364805612394036,-0.17334112832505116
1745334693.2539558,0.852963,0.198677,0.113948,-96.0575,-9.266250000000001,-13.7375,-0.22303420052616194,-0.12364805612394036,-0.17334112832505116
1745334693.2577076,0.919087,0.11102,0.068869,-97.2475,-13.02875,-13.387500000000001,-0.22303420052616194,-0.12364805612394036,-0.17334112832505116
1745334693.2610388,0.911889,0.128893,0.050935,-97.15125,-15.557500000000001,-13.431250000000002,-0.22303420052616194,-0.12364805612394036,-0.17334112832505116
1745334693.2645361,0.791963,0.110715,-0.001769,-97.85125000000001,-14.778750000000002,-12.22375,-0.22303420052616194,-0.12364805612394036,-0.17334112832505116
1745334693.26801,0.767868,0.032757,0.127063,-97.72875,-19.9325,-14.770000000000001,-0.22303420052616194,-0.12364805612394036,-0.17334112832505116
1745334693.2736654,0.846558,0.002196,-0.022692,-97.83375000000001,-24.3075,-19.591250000000002,-0.22303420052616194,-0.12364805612394036,-0.17334112832505116
1745334693.2770658,0.916098,0.033977,0.033184,-96.45125000000002,-25.707500000000003,-15.802500000000002,-0.22303420052616194,-0.12364805612394036,-0.17334112832505116
1745334693.2802436,0.947391,0.013237,0.09204899999999999,-95.67250000000001,-25.40125,-17.115000000000002,-0.22303420052616194,-0.12364805612394036,-0.17334112832505116
1745334693.2841237,1.0377319999999999,-0.02318,0.08912099999999999,-94.745,-26.687500000000004,-17.01875,-0.22303420052616194,-0.12364805612394036,-0.17334112832505116
1745334693.2892692,1.025288,-0.118584,0.064416,-92.70625000000001,-21.673750000000002,-17.071250000000003,-0.23121894182987432,-0.12744811458637825,-0.17860274773458054
1745334693.2931435,1.055239,-0.148718,0.145119,-91.32375,-22.907500000000002,-19.766250000000003,-0.23121894182987432,-0.12744811458637825,-0.17860274773458054
1745334693.296756,1.089521,-0.18056,0.059962999999999995,-89.62625000000001,-22.89,-19.950000000000003,-0.23121894182987432,-0.12744811458637825,-0.17860274773458054
1745334693.3003848,1.181509,-0.169763,0.167872,-88.69000000000001,-20.195,-20.895000000000003,-0.23121894182987432,-0.12744811458637825,-0.17860274773458054
1745334693.303863,1.19926,-0.108031,0.144936,-87.87625000000001,-19.57375,-21.665000000000003,-0.23121894182987432,-0.12744811458637825,-0.17860274773458054
1745334693.3072345,1.042368,-0.121695,0.123708,-87.75375000000001,-18.200000000000003,-22.26,-0.23121894182987432,-0.12744811458637825,-0.17860274773458054
1745334693.31065,0.960445,-0.097722,0.20227599999999998,-87.37750000000001,-18.445,-23.301250000000003,-0.23121894182987432,-0.12744811458637825,-0.17860274773458054
1745334693.3140006,0.951234,-0.084546,0.222345,-87.14125000000001,-21.09625,-25.497500000000002,-0.23121894182987432,-0.12744811458637825,-0.17860274773458054
1745334693.317353,1.0065,-0.078812,0.149633,-86.95750000000001,-23.3625,-26.547500000000003,-0.23121894182987432,-0.12744811458637825,-0.17860274773458054
1745334693.326139,0.989908,-0.059962999999999995,0.145607,-87.03625000000001,-23.6075,-23.852500000000003,-0.23121894182987432,-0.12744811458637825,-0.17860274773458054
1745334693.3302274,0.782691,-0.056242,0.138104,-86.53750000000001,-25.051250000000003,-23.555000000000003,-0.23121894182987432,-0.12744811458637825,-0.17860274773458054
1745334693.3338208,0.81923,-0.035258,0.229909,-84.73500000000001,-30.948750000000004,-21.910000000000004,-0.23121894182987432,-0.12101724641917568,-0.19146448406898567
1745334693.3372817,0.898896,-0.008296,0.111874,-83.95625000000001,-32.751250000000006,-18.26125,-0.22595732242034494,-0.12101724641917568,-0.19146448406898567
1745334693.3405402,0.9256139999999999,0.029523999999999998,0.065636,-84.33250000000001,-30.161250000000003,-17.613750000000003,-0.22595732242034494,-0.12101724641917568,-0.19146448406898567
1745334693.343954,0.8954799999999999,-0.01647,0.173972,-84.47250000000001,-32.165000000000006,-15.9425,-0.22595732242034494,-0.12101724641917568,-0.19146448406898567
1745334693.347365,0.824781,-0.068259,0.148901,-83.99125000000001,-33.80125,-14.743750000000002,-0.22595732242034494,-0.12101724641917568,-0.19146448406898567
1745334693.350694,0.871324,-0.144082,0.161589,-83.32625,-35.20125,-17.71875,-0.22595732242034494,-0.12101724641917568,-0.19146448406898567
1745334693.3543918,0.94123,-0.14091,0.121695,-82.60000000000001,-34.69375,-16.65125,-0.22595732242034494,-0.12101724641917568,-0.19146448406898567
1745334693.360178,1.058411,-0.079788,0.149328,-83.48375000000001,-32.655,-13.2825,-0.22595732242034494,-0.12101724641917568,-0.19146448406898567
1745334693.364289,0.990518,-0.161162,0.124623,-82.10125000000001,-28.078750000000003,-8.085,-0.22595732242034494,-0.12101724641917568,-0.19146448406898567
1745334693.367664,1.071831,-0.30414599999999997,0.304268,-79.62500000000001,-33.276250000000005,-9.91375,-0.22595732242034494,-0.12101724641917568,-0.19146448406898567
1745334693.371311,1.145946,-0.193309,0.054595,-78.84625000000001,-31.876250000000002,-11.620000000000001,-0.22595732242034494,-0.12101724641917568,-0.19146448406898567
1745334693.3748057,0.938729,-0.162687,0.025803,-77.55125000000001,-23.590000000000003,-12.8625,-0.22595732242034494,-0.12101724641917568,-0.19146448406898567
1745334693.3804638,1.0420019999999999,-0.11315499999999999,0.13359,-74.86500000000001,-30.476250000000004,-17.543750000000003,-0.22595732242034494,-0.12101724641917568,-0.19146448406898567
1745334693.3839145,1.06994,0.00061,-0.008296,-73.49125000000001,-24.718750000000004,-17.56125,-0.24437299035369775,-0.11458637825197311,-0.19409529377375037
1745334693.3872669,0.981368,-0.0013419999999999999,0.11041,-72.69500000000001,-23.4325,-14.717500000000001,-0.24437299035369775,-0.11458637825197311,-0.19409529377375037
1745334693.3914037,0.903166,-0.087169,0.125965,-70.805,-26.705000000000002,-14.043750000000001,-0.24437299035369775,-0.11458637825197311,-0.19409529377375037
1745334693.3959432,0.824354,-0.07942199999999999,0.101992,-69.19500000000001,-26.74875,-15.916250000000002,-0.24437299035369775,-0.11458637825197311,-0.19409529377375037
1745334693.4000368,0.798673,-0.015311,0.102236,-68.3725,-29.023750000000003,-17.0275,-0.24437299035369775,-0.11458637825197311,-0.19409529377375037
1745334693.4033773,0.833504,-0.026413,0.130601,-67.50625000000001,-29.645000000000003,-18.0425,-0.24437299035369775,-0.11458637825197311,-0.19409529377375037
1745334693.4067602,0.903898,-0.016409,0.108946,-67.06875000000001,-29.890000000000004,-18.751250000000002,-0.24437299035369775,-0.11458637825197311,-0.19409529377375037
1745334693.4101589,0.911157,-0.029768,0.088633,-66.78,-27.65875,-20.387500000000003,-0.24437299035369775,-0.11458637825197311,-0.19409529377375037
1745334693.4135513,0.833565,-0.006527,0.110288,-66.7625,-24.64,-21.455000000000002,-0.24437299035369775,-0.11458637825197311,-0.19409529377375037
1745334693.4168952,0.750056,0.003904,0.151829,-66.70125,-25.427500000000002,-20.816250000000004,-0.24437299035369775,-0.11458637825197311,-0.19409529377375037
1745334693.4210935,0.742126,-0.017934,0.170007,-66.92875000000001,-27.230000000000004,-20.72875,-0.24437299035369775,-0.11458637825197311,-0.19409529377375037
1745334693.4250848,0.787632,-0.079361,0.154391,-66.8675,-27.702500000000004,-20.457500000000003,-0.24437299035369775,-0.11458637825197311,-0.19409529377375037
1745334693.4321058,0.886147,0.012383,0.148108,-66.82375,-28.341250000000002,-19.0575,-0.24437299035369775,-0.10757088570593394,-0.19000292312189418
1745334693.435653,0.851316,-0.036356,0.148474,-66.69250000000001,-26.538750000000004,-13.580000000000002,-0.26629640456007014,-0.10757088570593394,-0.19000292312189418
1745334693.4391482,0.85278,-0.043981,0.157014,-66.43,-27.090000000000003,-12.967500000000001,-0.26629640456007014,-0.10757088570593394,-0.19000292312189418
1745334693.4424357,0.872483,-0.040687,0.122976,-66.40375,-26.206250000000004,-12.845,-0.26629640456007014,-0.10757088570593394,-0.19000292312189418
1745334693.4458463,0.894931,-0.011712,0.145058,-66.57875,-25.497500000000002,-11.156250000000002,-0.26629640456007014,-0.10757088570593394,-0.19000292312189418
1745334693.4491756,0.929396,-0.003843,0.188917,-66.39500000000001,-26.67,-10.49125,-0.26629640456007014,-0.10757088570593394,-0.19000292312189418
1745334693.4525826,0.956114,0.042029,0.138409,-67.01625,-25.83875,-9.406250000000002,-0.26629640456007014,-0.10757088570593394,-0.19000292312189418
1745334693.458071,0.929396,0.04514,0.174155,-68.64375000000001,-23.896250000000002,-7.315,-0.26629640456007014,-0.10757088570593394,-0.19000292312189418
1745334693.4616725,0.913353,0.015738,0.156526,-69.42250000000001,-24.66625,-6.85125,-0.26629640456007014,-0.10757088570593394,-0.19000292312189418
1745334693.4655702,1.0279719999999999,-0.171227,0.10961699999999999,-67.4975,-21.192500000000003,-12.398750000000001,-0.26629640456007014,-0.10757088570593394,-0.19000292312189418
1745334693.4688227,0.976366,0.15792899999999999,0.1525,-69.73750000000001,-20.028750000000002,-12.967500000000001,-0.26629640456007014,-0.10757088570593394,-0.19000292312189418
1745334693.4724247,0.997167,-0.029646,0.092537,-69.2125,-19.34625,-13.623750000000001,-0.26629640456007014,-0.10757088570593394,-0.19000292312189418
1745334693.4758904,0.957029,0.09991799999999999,0.088023,-69.79,-14.175,-12.495000000000001,-0.26629640456007014,-0.10757088570593394,-0.19000292312189418
1745334693.479262,0.875228,0.069906,0.068442,-69.23,-14.35875,-13.763750000000002,-0.26629640456007014,-0.10757088570593394,-0.19000292312189418
1745334693.4856286,0.808738,0.110044,0.127917,-68.13625,-14.1575,-13.597500000000002,-0.27711195556854723,-0.10698626132709733,-0.20447237649809996
1745334693.4895537,0.8100189999999999,0.0915,0.12017,-67.85625,-17.38625,-12.7925,-0.27711195556854723,-0.10698626132709733,-0.20447237649809996
1745334693.494469,0.858941,0.090158,0.07679899999999999,-66.885,-16.66,-12.293750000000001,-0.27711195556854723,-0.10698626132709733,-0.20447237649809996
1745334693.498595,0.896334,0.111081,0.124684,-66.09750000000001,-14.315000000000001,-12.722500000000002,-0.27711195556854723,-0.10698626132709733,-0.20447237649809996
1745334693.5019965,0.886818,0.122488,0.15311,-65.75625000000001,-16.082500000000003,-13.361250000000002,-0.27711195556854723,-0.10698626132709733,-0.20447237649809996
1745334693.5056164,0.8355779999999999,0.122427,0.129625,-65.625,-16.835,-14.175,-0.27711195556854723,-0.10698626132709733,-0.20447237649809996
1745334693.5091093,0.813313,0.113094,0.150304,-65.2925,-17.01875,-16.17875,-0.27711195556854723,-0.10698626132709733,-0.20447237649809996
1745334693.5124948,0.829722,0.141093,0.158356,-65.0125,-18.672500000000003,-17.52625,-0.27711195556854723,-0.10698626132709733,-0.20447237649809996
1745334693.5158887,0.860771,0.162016,0.15799,-65.14375000000001,-20.22125,-17.648750000000003,-0.27711195556854723,-0.10698626132709733,-0.20447237649809996
1745334693.519192,0.885842,0.121451,0.08527799999999999,-64.8375,-20.08125,-17.64,-0.27711195556854723,-0.10698626132709733,-0.20447237649809996
1745334693.522451,0.863028,0.104432,0.12956399999999998,-64.435,-20.85125,-17.2725,-0.27711195556854723,-0.10698626132709733,-0.20447237649809996
1745334693.528612,0.7783599999999999,0.08174,0.100101,-63.910000000000004,-24.027500000000003,-18.48,-0.27711195556854723,-0.10698626132709733,-0.20447237649809996
1745334693.5326092,0.775127,0.078324,0.071797,-61.495000000000005,-23.31875,-18.94375,-0.2841274481145864,-0.10464776381175095,-0.20681087401344636
1745334693.5391588,0.788791,0.06478199999999999,0.046238,-60.2,-23.528750000000002,-19.915000000000003,-0.2841274481145864,-0.10464776381175095,-0.20681087401344636
1745334693.5477216,0.7339519999999999,0.11114199999999999,0.050873999999999996,-58.415000000000006,-22.496250000000003,-17.64,-0.2841274481145864,-0.10464776381175095,-0.20681087401344636
1745334693.5512323,0.65209,0.101382,0.087291,-56.95375000000001,-24.99875,-16.528750000000002,-0.2841274481145864,-0.10464776381175095,-0.20681087401344636
1745334693.5553339,0.638975,0.084302,0.030134,-55.42250000000001,-26.41625,-14.463750000000001,-0.2841274481145864,-0.10464776381175095,-0.20681087401344636
1745334693.5598192,0.651419,0.091805,0.038308,-54.197500000000005,-27.282500000000002,-12.258750000000001,-0.2841274481145864,-0.10464776381175095,-0.20681087401344636
1745334693.563913,0.725534,0.113582,0.054534,-53.78625,-27.431250000000002,-10.00125,-0.2841274481145864,-0.10464776381175095,-0.20681087401344636
1745334693.5670726,0.7418819999999999,0.117913,0.036417,-53.322500000000005,-27.501250000000002,-9.02125,-0.2841274481145864,-0.10464776381175095,-0.20681087401344636
1745334693.5706692,0.7114429999999999,0.074054,-0.000244,-52.7625,-25.235000000000003,-9.51125,-0.2841274481145864,-0.10464776381175095,-0.20681087401344636
1745334693.574139,0.688812,0.068076,0.069723,-52.21125000000001,-26.923750000000002,-9.38,-0.2841274481145864,-0.10464776381175095,-0.20681087401344636
1745334693.577391,0.781349,0.008662,0.077775,-51.17,-27.676250000000003,-11.55,-0.2841274481145864,-0.10464776381175095,-0.20681087401344636
1745334693.5806253,0.924638,0.013115,-0.040382,-49.323750000000004,-26.031250000000004,-15.330000000000002,-0.287635194387606,-0.10377082724349605,-0.2052031569716457
1745334693.58395,0.808067,0.163114,-0.010126,-49.71750000000001,-24.63125,-11.0425,-0.287635194387606,-0.10377082724349605,-0.2052031569716457
1745334693.5873005,0.883585,0.13054,0.009516,-50.81125000000001,-20.44875,-14.227500000000001,-0.287635194387606,-0.10377082724349605,-0.2052031569716457
1745334693.5922837,0.814777,-0.039284,-0.073139,-50.977500000000006,-17.15875,-14.735000000000001,-0.287635194387606,-0.10377082724349605,-0.2052031569716457
1745334693.5965722,0.803858,0.103822,-0.081374,-50.08500000000001,-21.306250000000002,-14.79625,-0.287635194387606,-0.10377082724349605,-0.2052031569716457
1745334693.6022005,0.639829,0.217465,0.145424,-51.003750000000004,-23.275000000000002,-11.200000000000001,-0.287635194387606,-0.10377082724349605,-0.2052031569716457
1745334693.6058314,0.844362,0.156648,0.027632999999999998,-51.62500000000001,-21.743750000000002,-13.807500000000001,-0.287635194387606,-0.10377082724349605,-0.2052031569716457
1745334693.6093698,0.785924,0.156892,0.126941,-51.791250000000005,-21.525000000000002,-9.826250000000002,-0.287635194387606,-0.10377082724349605,-0.2052031569716457
1745334693.6127687,0.736575,0.107421,0.010431,-52.018750000000004,-20.203750000000003,-9.703750000000001,-0.287635194387606,-0.10377082724349605,-0.2052031569716457
1745334693.6161697,0.894809,0.181048,0.150975,-52.34250000000001,-20.833750000000002,-14.542500000000002,-0.287635194387606,-0.10377082724349605,-0.2052031569716457
1745334693.61938,0.840519,0.199043,0.09729499999999999,-52.963750000000005,-17.92,-12.3725,-0.287635194387606,-0.10377082724349605,-0.2052031569716457
1745334693.6224618,0.7315119999999999,0.563762,0.221003,-53.917500000000004,-18.3225,-8.56625,-0.287635194387606,-0.10377082724349605,-0.2052031569716457
1745334693.627896,0.729499,0.472262,0.17934,-54.61750000000001,-15.05,-10.31625,-0.287635194387606,-0.10377082724349605,-0.2052031569716457
1745334693.6319895,0.755973,0.175741,-0.130296,-54.845000000000006,-11.742500000000001,-13.728750000000002,-0.2978661210172464,-0.09850920783396667,-0.20622624963460975
1745334693.635898,0.585112,0.62281,-0.086071,-54.696250000000006,-20.92125,-5.215000000000001,-0.2978661210172464,-0.09850920783396667,-0.20622624963460975
1745334693.6394866,0.79422,0.223626,0.110471,-54.36375,-19.521250000000002,-12.67875,-0.2978661210172464,-0.09850920783396667,-0.20622624963460975
1745334693.6430352,0.686677,0.401075,0.219722,-56.323750000000004,-20.676250000000003,-10.87625,-0.2978661210172464,-0.09850920783396667,-0.20622624963460975
1745334693.646426,0.77104,0.32635,0.094428,-55.597500000000004,-20.142500000000002,-16.03875,-0.2978661210172464,-0.09850920783396667,-0.20622624963460975
1745334693.6497629,0.836859,0.43798,0.143838,-55.41375000000001,-22.74125,-14.113750000000001,-0.2978661210172464,-0.09850920783396667,-0.20622624963460975
1745334693.655379,0.876265,0.449448,0.022814,-56.682500000000005,-15.426250000000001,-7.227500000000001,-0.2978661210172464,-0.09850920783396667,-0.20622624963460975
1745334693.6592116,0.787571,0.290116,0.083631,-56.595000000000006,-12.853750000000002,-11.69875,-0.2978661210172464,-0.09850920783396667,-0.20622624963460975
1745334693.6648755,0.7576809999999999,0.308782,0.068503,-55.615,-18.36625,-11.672500000000001,-0.2978661210172464,-0.09850920783396667,-0.20622624963460975
1745334693.6689086,0.776591,0.40424699999999997,0.08497299999999999,-55.580000000000005,-16.79125,-9.082500000000001,-0.2978661210172464,-0.09850920783396667,-0.20622624963460975
1745334693.6722622,0.756644,0.262117,-0.035807,-55.002500000000005,-15.513750000000002,-8.225000000000001,-0.2978661210172464,-0.09850920783396667,-0.20622624963460975
1745334693.675824,0.789157,0.17873,0.135359,-55.30875,-20.160000000000004,-9.52875,-0.2978661210172464,-0.09850920783396667,-0.20622624963460975
1745334693.6791553,0.860161,0.352885,-0.086071,-54.88875,-15.496250000000002,-4.996250000000001,-0.31540485238234434,-0.09500146156094709,-0.2018415667933353
1745334693.682222,0.967521,0.09881999999999999,-0.058865,-54.862500000000004,-12.3725,-5.416250000000001,-0.31540485238234434,-0.09500146156094709,-0.2018415667933353
1745334693.6856408,0.930738,0.175619,0.017751,-54.573750000000004,-10.080000000000002,-8.023750000000001,-0.31540485238234434,-0.09500146156094709,-0.2018415667933353
1745334693.6889887,0.863211,0.134322,-0.030134,-54.145,-7.805000000000001,-9.922500000000001,-0.31540485238234434,-0.09500146156094709,-0.2018415667933353
1745334693.6924324,0.763659,0.145119,0.02867,-54.556250000000006,-6.6675,-9.7475,-0.31540485238234434,-0.09500146156094709,-0.2018415667933353
1745334693.6984835,0.67283,0.201788,0.10614,-53.27875,-13.352500000000001,-11.865000000000002,-0.31540485238234434,-0.09500146156094709,-0.2018415667933353
1745334693.7025135,0.751764,0.206058,0.10284599999999999,-53.191250000000004,-8.28625,-12.057500000000001,-0.31540485238234434,-0.09500146156094709,-0.2018415667933353
1745334693.7086399,0.87901,0.20557,-0.031293,-53.4275,-10.561250000000001,-9.7475,-0.31540485238234434,-0.09500146156094709,-0.2018415667933353
1745334693.7122602,0.949892,0.240584,0.022814,-52.806250000000006,-6.8950000000000005,-9.791250000000002,-0.31540485238234434,-0.09500146156094709,-0.2018415667933353
1745334693.7156827,0.888099,0.180926,0.131211,-52.386250000000004,-8.61875,-12.328750000000001,-0.31540485238234434,-0.09500146156094709,-0.2018415667933353
1745334693.7190895,0.808372,0.166469,-0.162565,-51.82625,-4.45375,-13.46625,-0.31540485238234434,-0.09500146156094709,-0.2018415667933353
1745334693.7224379,0.673989,0.23668,0.1159,-52.167500000000004,-7.51625,-11.9,-0.31540485238234434,-0.09500146156094709,-0.2018415667933353
1745334693.7257986,0.675697,0.236253,0.009882,-52.5525,-8.8375,-11.252500000000001,-0.31540485238234434,-0.09500146156094709,-0.2018415667933353
1745334693.729536,0.709552,0.202947,-0.020679,-51.581250000000004,-12.39,-12.39,-0.31920491084478225,-0.09090909090909091,-0.20403390821397252
1745334693.7352061,0.84973,0.239974,0.076067,-52.596250000000005,-9.502500000000001,-12.705000000000002,-0.31920491084478225,-0.09090909090909091,-0.20403390821397252
1745334693.7388334,0.855525,0.227103,-0.056119999999999996,-52.150000000000006,-10.395000000000001,-12.503750000000002,-0.31920491084478225,-0.09090909090909091,-0.20403390821397252
1745334693.7423272,0.836066,0.225273,0.017568,-52.298750000000005,-8.715000000000002,-12.39,-0.31920491084478225,-0.09090909090909091,-0.20403390821397252
1745334693.7459457,0.779092,0.225456,-0.010919,-52.526250000000005,-6.755000000000001,-12.10125,-0.31920491084478225,-0.09090909090909091,-0.20403390821397252
1745334693.7494125,0.7868999999999999,0.228323,0.003172,-52.34250000000001,-5.661250000000001,-11.523750000000001,-0.31920491084478225,-0.09090909090909091,-0.20403390821397252
1745334693.7528071,0.802333,0.215574,0.029951,-52.49125000000001,-6.317500000000001,-10.6925,-0.31920491084478225,-0.09090909090909091,-0.20403390821397252
1745334693.7562134,0.8306979999999999,0.209596,-0.029158,-52.03625,-7.691250000000001,-10.325000000000001,-0.31920491084478225,-0.09090909090909091,-0.20403390821397252
1745334693.7618222,0.850401,0.232593,-0.002806,-52.115,-3.4037500000000005,-9.765,-0.31920491084478225,-0.09090909090909091,-0.20403390821397252
1745334693.7661474,0.879742,0.184464,0.019398,-51.283750000000005,-2.07375,-11.996250000000002,-0.31920491084478225,-0.09090909090909091,-0.20403390821397252
1745334693.7705214,0.933483,0.25668799999999997,0.06740499999999999,-49.95375000000001,0.6475000000000001,-13.133750000000001,-0.31920491084478225,-0.09090909090909091,-0.20403390821397252
1745334693.7746012,0.966545,0.204228,-0.02013,-49.28,1.5662500000000001,-15.058750000000002,-0.31920491084478225,-0.09090909090909091,-0.20403390821397252
1745334693.7780664,0.864614,0.25882299999999997,-0.093147,-48.8425,6.361250000000001,-15.25125,-0.32271265711780184,-0.08623209587839813,-0.2107570885705934
1745334693.7813134,0.737368,0.217648,0.056852,-48.23875,7.586250000000001,-13.370000000000001,-0.32271265711780184,-0.08623209587839813,-0.2107570885705934
1745334693.7844596,0.68869,0.24949,0.012565999999999999,-47.5125,5.888750000000001,-14.463750000000001,-0.32271265711780184,-0.08623209587839813,-0.2107570885705934
1745334693.7878044,0.738466,0.211914,0.08649799999999999,-46.532500000000006,4.375,-14.131250000000001,-0.32271265711780184,-0.08623209587839813,-0.2107570885705934
1745334693.7911887,0.802882,0.244244,-0.031781,-45.6225,3.31625,-16.082500000000003,-0.32271265711780184,-0.08623209587839813,-0.2107570885705934
1745334693.7952216,0.902922,0.334463,0.045262,-45.2725,8.3825,-15.881250000000001,-0.32271265711780184,-0.08623209587839813,-0.2107570885705934
1745334693.7993264,0.896944,0.20197099999999998,0.064843,-44.52875,13.912500000000001,-21.236250000000002,-0.32271265711780184,-0.08623209587839813,-0.2107570885705934
1745334693.803266,0.8477169999999999,0.405223,0.014945,-44.75625,15.662500000000001,-17.911250000000003,-0.32271265711780184,-0.08623209587839813,-0.2107570885705934
1745334693.80655,0.803492,0.31415,0.028548,-44.5375,14.86625,-19.153750000000002,-0.32271265711780184,-0.08623209587839813,-0.2107570885705934
1745334693.8100498,0.738344,0.218075,0.110776,-44.24,17.990000000000002,-18.016250000000003,-0.32271265711780184,-0.08623209587839813,-0.2107570885705934
1745334693.8156583,0.86437,0.318054,-0.060451,-44.03,16.44125,-20.685000000000002,-0.32271265711780184,-0.08623209587839813,-0.2107570885705934
1745334693.8190527,0.823866,0.419436,0.129991,-45.150000000000006,17.0975,-20.676250000000003,-0.32271265711780184,-0.08623209587839813,-0.2107570885705934
1745334693.8221586,0.858331,0.179584,0.186538,-44.948750000000004,16.625,-19.635,-0.32271265711780184,-0.08623209587839813,-0.2107570885705934
1745334693.825246,1.044808,0.396744,0.108214,-44.975,16.528750000000002,-24.132500000000004,-0.32271265711780184,-0.08623209587839813,-0.2107570885705934
1745334693.8291028,1.199992,0.329522,0.009699,-44.432500000000005,19.250000000000004,-25.383750000000003,-0.3232972814966384,-0.08418591055247004,-0.2101724641917568
1745334693.8339922,1.054385,0.38552,0.019215,-47.136250000000004,32.73375,-25.121250000000003,-0.3232972814966384,-0.08418591055247004,-0.2101724641917568
1745334693.8375075,1.040294,0.305915,0.213134,-46.392500000000005,32.92625,-28.46375,-0.3232972814966384,-0.08418591055247004,-0.2101724641917568
1745334693.840911,0.895724,0.511607,0.113216,-46.57625,32.01625000000001,-25.348750000000003,-0.3232972814966384,-0.08418591055247004,-0.2101724641917568
1745334693.8443866,0.890844,0.258274,0.151097,-46.7775,35.3325,-29.120000000000005,-0.3232972814966384,-0.08418591055247004,-0.2101724641917568
1745334693.8477755,0.795623,0.384483,0.170007,-46.480000000000004,29.680000000000003,-25.812500000000004,-0.3232972814966384,-0.08418591055247004,-0.2101724641917568
1745334693.8511128,0.789584,0.257725,-0.022814,-46.471250000000005,34.27375,-30.843750000000004,-0.3232972814966384,-0.08418591055247004,-0.2101724641917568
1745334693.8543653,0.87962,0.28487,0.301889,-46.43625,36.67125,-31.4475,-0.3232972814966384,-0.08418591055247004,-0.2101724641917568
1745334693.8576164,0.9311039999999999,0.240889,0.079788,-46.042500000000004,34.16875,-31.3775,-0.3232972814966384,-0.08418591055247004,-0.2101724641917568
1745334693.8608434,0.827526,0.208986,0.089548,-45.49125,37.633750000000006,-35.8575,-0.3232972814966384,-0.08418591055247004,-0.2101724641917568
1745334693.8676322,0.784826,0.324215,0.138348,-45.33375,37.432500000000005,-32.64625,-0.3232972814966384,-0.08418591055247004,-0.2101724641917568
1745334693.8714817,0.752069,0.189527,0.096502,-43.89000000000001,38.237500000000004,-34.510000000000005,-0.3232972814966384,-0.08418591055247004,-0.2101724641917568
1745334693.8748708,0.779153,0.29639899999999997,0.091012,-43.00625,39.445,-31.613750000000003,-0.3232972814966384,-0.08418591055247004,-0.2101724641917568
1745334693.8783221,0.81069,0.061366,0.192516,-42.42875,40.67,-32.252500000000005,-0.3183279742765273,-0.0932475884244373,-0.22537269804150833
1745334693.8817346,0.842166,0.404003,0.147315,-42.58625000000001,39.37500000000001,-26.722500000000004,-0.3183279742765273,-0.0932475884244373,-0.22537269804150833
1745334693.8850589,0.902922,0.25254,0.11669299999999999,-41.9125,45.657500000000006,-29.995000000000005,-0.3183279742765273,-0.0932475884244373,-0.22537269804150833
1745334693.8883529,0.98637,0.160796,0.220881,-42.49,46.865,-29.225,-0.3183279742765273,-0.0932475884244373,-0.22537269804150833
1745334693.891613,0.956907,0.303353,0.027511,-42.253750000000004,49.51625000000001,-30.047500000000003,-0.3183279742765273,-0.0932475884244373,-0.22537269804150833
1745334693.8948195,0.95892,0.333853,0.079178,-42.35,52.587500000000006,-27.405,-0.3183279742765273,-0.0932475884244373,-0.22537269804150833
1745334693.898492,1.106418,0.253699,0.26992499999999997,-42.4025,56.70875,-31.491250000000004,-0.3183279742765273,-0.0932475884244373,-0.22537269804150833
1745334693.9038956,1.120265,0.273524,0.25943299999999997,-43.618750000000006,62.597500000000004,-31.823750000000004,-0.3183279742765273,-0.0932475884244373,-0.22537269804150833
1745334693.9078572,1.149423,0.37393,0.165554,-45.77125,69.65,-29.872500000000002,-0.3183279742765273,-0.0932475884244373,-0.22537269804150833
1745334693.9112582,1.004548,0.271267,0.31799299999999997,-47.057500000000005,70.07875000000001,-30.135,-0.3183279742765273,-0.0932475884244373,-0.22537269804150833
1745334693.9147427,0.949831,0.304268,0.214171,-47.9675,70.0,-28.122500000000002,-0.3183279742765273,-0.0932475884244373,-0.22537269804150833
1745334693.9210413,1.06018,0.303231,0.240889,-48.69375,73.45625000000001,-28.866250000000004,-0.3183279742765273,-0.0932475884244373,-0.22537269804150833
1745334693.9244075,1.017785,0.277672,0.260531,-50.855000000000004,82.83625,-30.196250000000003,-0.3183279742765273,-0.0932475884244373,-0.22537269804150833
1745334693.927676,1.167357,0.387167,0.278343,-51.30125,85.60125000000001,-23.817500000000003,-0.3025431160479392,-0.08886290558316282,-0.2459807073954984
1745334693.9309773,1.003084,0.164883,0.158905,-52.605000000000004,91.69125000000001,-22.907500000000002,-0.3025431160479392,-0.08886290558316282,-0.2459807073954984
1745334693.9360425,0.910364,0.449204,0.325801,-55.05500000000001,98.35875000000001,-22.225,-0.3025431160479392,-0.08886290558316282,-0.2459807073954984
1745334693.939813,0.857843,0.28731,0.291763,-56.48125,101.34250000000002,-20.938750000000002,-0.3025431160479392,-0.08886290558316282,-0.2459807073954984
1745334693.9437246,0.887977,0.17147099999999998,0.27572,-57.73250000000001,101.91125000000001,-23.012500000000003,-0.3025431160479392,-0.08886290558316282,-0.2459807073954984
1745334693.9471188,0.828929,0.484279,0.133224,-59.6225,105.05250000000001,-16.31875,-0.3025431160479392,-0.08886290558316282,-0.2459807073954984
1745334693.9506218,0.974536,-0.044102999999999996,0.272304,-60.71625,112.47250000000001,-27.238750000000003,-0.3025431160479392,-0.08886290558316282,-0.2459807073954984
1745334693.95396,0.777201,0.617259,0.130845,-63.35875000000001,116.95250000000001,-19.20625,-0.3025431160479392,-0.08886290558316282,-0.2459807073954984
1745334693.9572036,0.868518,0.231617,0.344894,-63.04375,112.75250000000001,-29.338750000000005,-0.3025431160479392,-0.08886290558316282,-0.2459807073954984
1745334693.9604998,0.642513,0.609085,0.06709999999999999,-65.10875,108.41250000000001,-27.282500000000002,-0.3025431160479392,-0.08886290558316282,-0.2459807073954984
1745334693.963616,1.031571,-0.157746,0.186843,-61.95875000000001,111.92125000000001,-41.335,-0.3025431160479392,-0.08886290558316282,-0.2459807073954984
1745334693.9668617,0.703757,0.276025,-0.099735,-63.27125000000001,109.26125,-40.74875,-0.3025431160479392,-0.08886290558316282,-0.2459807073954984
1745334693.975327,0.75762,0.287005,0.487024,-58.61625000000001,100.48500000000001,-46.165000000000006,-0.29348143817597194,-0.08827828120432622,-0.28325051154633146
1745334693.9792526,1.126914,-0.039710999999999996,0.034465,-54.118750000000006,88.6025,-65.275,-0.29348143817597194,-0.08827828120432622,-0.28325051154633146
1745334693.9827611,0.94428,0.19276,0.169458,-53.768750000000004,95.09500000000001,-59.47375,-0.29348143817597194,-0.08827828120432622,-0.28325051154633146
1745334693.9862354,0.906277,0.14762,-0.282369,-50.61000000000001,88.62875000000001,-62.53625,-0.29348143817597194,-0.08827828120432622,-0.28325051154633146
1745334693.9895504,1.065121,0.52582,-0.287493,-50.35625,92.75875,-56.13125000000001,-0.29348143817597194,-0.08827828120432622,-0.28325051154633146
1745334693.9928317,0.683627,0.561017,0.234057,-50.52250000000001,86.9925,-53.7775,-0.29348143817597194,-0.08827828120432622,-0.28325051154633146
1745334693.996087,0.384788,0.328424,-0.022143,-48.74625,80.23750000000001,-48.886250000000004,-0.29348143817597194,-0.08827828120432622,-0.28325051154633146
1745334693.9993174,0.460428,0.302621,0.083021,-47.02250000000001,76.6675,-41.405,-0.29348143817597194,-0.08827828120432622,-0.28325051154633146
1745334694.002627,0.621163,0.335622,0.081801,-45.010000000000005,65.49375,-34.588750000000005,-0.29348143817597194,-0.08827828120432622,-0.28325051154633146
1745334694.0078223,0.74603,-0.03721,-0.266204,-35.236250000000005,49.7,-50.120000000000005,-0.29348143817597194,-0.08827828120432622,-0.28325051154633146
1745334694.011337,0.767014,1.506883,0.489952,-1.9250000000000003,47.337500000000006,-13.06375,-0.29348143817597194,-0.08827828120432622,-0.28325051154633146
1745334694.0148432,1.39507,1.243851,-0.20923,3.4825000000000004,60.59375000000001,-1.3475000000000001,-0.29348143817597194,-0.08827828120432622,-0.28325051154633146
1745334694.0181332,1.701107,-1.047065,-0.029096999999999998,-3.4037500000000005,63.017500000000005,-32.655,-0.29348143817597194,-0.08827828120432622,-0.28325051154633146
1745334694.0213873,0.515328,0.814533,-0.495015,-15.933750000000002,56.9975,-62.84250000000001,-0.29348143817597194,-0.08827828120432622,-0.28325051154633146
1745334694.027644,-0.988993,0.989969,0.012444,-14.883750000000001,59.57875000000001,-17.1675,-0.27097339959076294,-0.0903244665302543,-0.3146740719087986
1745334694.0311198,1.994761,0.696864,0.5425949999999999,-2.42375,4.0687500000000005,-1.3650000000000002,-0.27097339959076294,-0.0903244665302543,-0.3146740719087986
1745334694.0367317,1.811151,0.144326,-0.06831999999999999,-14.516250000000001,19.425,-34.85125,-0.27097339959076294,-0.0903244665302543,-0.3146740719087986
1745334694.0405524,1.298446,1.120021,-0.152561,-23.861250000000002,30.800000000000004,-21.76125,-0.27097339959076294,-0.0903244665302543,-0.3146740719087986
1745334694.0443735,0.618601,0.08680299999999999,0.00488,-23.310000000000002,23.668750000000003,-20.273750000000003,-0.27097339959076294,-0.0903244665302543,-0.3146740719087986
1745334694.0479143,-0.050813,0.21831899999999999,-0.008845,-20.606250000000003,15.25125,-30.178750000000004,-0.27097339959076294,-0.0903244665302543,-0.3146740719087986
1745334694.05147,-0.27755,0.195322,-0.116754,-19.267500000000002,3.1412500000000003,-28.7875,-0.27097339959076294,-0.0903244665302543,-0.3146740719087986
1745334694.0548449,0.5185,0.502945,0.228567,-18.830000000000002,-14.883750000000001,-23.957500000000003,-0.27097339959076294,-0.0903244665302543,-0.3146740719087986
1745334694.0581682,1.269166,0.654225,0.076067,-21.97125,-30.712500000000002,-18.2175,-0.27097339959076294,-0.0903244665302543,-0.3146740719087986
1745334694.0614922,1.498099,0.396439,0.035318999999999996,-23.126250000000002,-27.046250000000004,-29.653750000000002,-0.27097339959076294,-0.0903244665302543,-0.3146740719087986
1745334694.0647724,1.318271,0.35221399999999997,0.166042,-25.200000000000003,-24.613750000000003,-26.722500000000004,-0.27097339959076294,-0.0903244665302543,-0.3146740719087986
1745334694.0684903,1.400865,0.441884,0.127978,-26.048750000000002,-31.272500000000004,-24.70125,-0.27097339959076294,-0.0903244665302543,-0.3146740719087986
