Timestamp,Accel X,Accel Y,Accel Z,Gyro X,Gyro Y,Gyro Z,Magneto X,Magneto Y,Magneto Z
1745335316.5901945,0.957456,0.227286,0.163846,-62.60625,14.323750000000002,10.1675,-0.2676118094124525,-0.06927798889213681,-0.27404267757965506
1745335316.5940552,0.962336,0.156587,0.367403,-61.626250000000006,10.64,6.947500000000001,-0.2676118094124525,-0.06927798889213681,-0.27404267757965506
1745335316.5979016,0.946842,0.193431,0.272304,-61.407500000000006,9.651250000000001,6.6762500000000005,-0.2673194972230342,-0.06635486699795382,-0.2809120140309851
1745335316.601285,0.906826,0.293532,0.1159,-63.64750000000001,13.7725,5.897500000000001,-0.2673194972230342,-0.06635486699795382,-0.2809120140309851
1745335316.604663,0.932141,0.197884,0.334768,-62.33500000000001,9.905000000000001,2.4850000000000003,-0.27258111663256357,-0.06387021338789828,-0.27155802396959955
1745335316.6079323,0.772138,0.342454,0.124806,-64.1375,11.830000000000002,3.54375,-0.27258111663256357,-0.06387021338789828,-0.2791581408944753
1745335316.6112287,0.792024,0.201483,0.275903,-63.236250000000005,8.540000000000001,1.9075000000000002,-0.26585793627594273,-0.06416252557731657,-0.2791581408944753
1745335316.6143756,0.731756,0.304817,0.042822,-63.14875000000001,11.76875,3.4562500000000003,-0.26995030692779887,-0.06343174510377082,-0.27959660917860274
1745335316.6176252,0.8075789999999999,0.291397,0.264679,-63.533750000000005,5.8100000000000005,1.77625,-0.26995030692779887,-0.06343174510377082,-0.27959660917860274
1745335316.620746,0.777262,0.378871,0.088389,-65.22250000000001,8.0325,4.15625,-0.26585793627594273,-0.0580239695995323,-0.2768196433791289
1745335316.624448,0.902129,0.18196299999999999,0.195749,-65.77375,7.621250000000001,-0.9187500000000001,-0.26585793627594273,-0.0580239695995323,-0.2768196433791289
1745335316.6288924,0.993385,0.194651,0.32757,-65.1175,7.726250000000001,-3.7887500000000003,-0.266150248465361,-0.054370067231803564,-0.2753580824320374
1745335316.632462,0.937265,0.348005,0.26931499999999997,-65.7125,10.92875,-3.7100000000000004,-0.266150248465361,-0.054370067231803564,-0.2753580824320374
1745335316.6356626,0.969229,0.22997,0.280478,-64.79375,9.93125,-4.515000000000001,-0.26834258988599824,-0.04940076001169249,-0.28383513592516807
1745335316.6388283,0.888282,0.231312,0.128222,-65.68625,9.975000000000001,-5.398750000000001,-0.26834258988599824,-0.05305466237942122,-0.277842736042093
1745335316.641857,0.881999,0.182207,0.249673,-65.91375000000001,10.01875,-7.927500000000001,-0.2646886875182695,-0.05305466237942122,-0.277842736042093
1745335316.6449578,0.911584,0.160186,0.245037,-65.03,8.505,-8.3125,-0.2646886875182695,-0.05159310143232973,-0.27301958491669104
1745335316.6479669,1.011075,0.254797,0.164029,-64.82000000000001,8.0675,-9.2225,-0.2676118094124525,-0.05159310143232973,-0.27301958491669104
1745335316.6510856,1.044686,0.264252,0.262544,-65.17,8.338750000000001,-10.42125,-0.2676118094124525,-0.05159310143232973,-0.27813504823151125
1745335316.656186,1.033401,0.15677,0.19763999999999998,-65.68625,11.103750000000002,-11.357500000000002,-0.26366559485530544,-0.04866997953814674,-0.27813504823151125
1745335316.659778,0.985028,0.137799,0.267668,-63.7,12.687500000000002,-13.107500000000002,-0.26366559485530544,-0.04852382344343759,-0.2782812043262204
1745335316.6632204,0.925126,0.217038,0.17116599999999998,-63.673750000000005,15.25125,-15.426250000000001,-0.26366559485530544,-0.04852382344343759,-0.2782812043262204
1745335316.666306,0.845155,0.262605,0.23155599999999998,-63.157500000000006,15.653750000000002,-12.521250000000002,-0.26571178018123354,-0.049546916106401634,-0.2809120140309851
1745335316.6695035,0.8590019999999999,0.253577,0.111508,-63.07000000000001,17.2025,-12.162500000000001,-0.26571178018123354,-0.049546916106401634,-0.28222741888336744
1745335316.6725984,0.822646,0.203618,0.232593,-62.5275,14.332500000000001,-11.80375,-0.2649809997076878,-0.0456007015492546,-0.28222741888336744
1745335316.675609,0.83753,0.24766,0.229177,-63.175000000000004,17.211250000000003,-12.355,-0.2649809997076878,-0.0456007015492546,-0.2870505700087694
1745335316.6786711,0.9125599999999999,0.18727,0.171288,-64.89875,17.22875,-13.632500000000002,-0.2652733118971061,-0.04413914060216311,-0.2870505700087694
1745335316.6816514,0.806786,0.291214,0.199043,-62.02875000000001,18.22625,-13.378750000000002,-0.2652733118971061,-0.04413914060216311,-0.2870505700087694
1745335316.6846383,0.8735809999999999,0.205936,0.171349,-63.58625000000001,19.81875,-16.205000000000002,-0.26585793627594273,-0.044723764980999704,-0.2880736626717334
1745335316.6889484,0.842837,0.32757,0.257725,-61.048750000000005,18.2875,-15.933750000000002,-0.2708272434960538,-0.03946214557147033,-0.28529669687225956
1745335316.693301,0.895907,0.24265799999999998,0.129198,-62.55375000000001,18.900000000000002,-19.60875,-0.2708272434960538,-0.03946214557147033,-0.28529669687225956
1745335316.6967976,0.859368,0.238205,0.12193899999999999,-62.09,24.902500000000003,-20.08125,-0.27258111663256357,-0.03317743349897691,-0.2870505700087694
1745335316.6998777,0.884439,0.322812,0.244732,-62.798750000000005,22.723750000000003,-19.17125,-0.27258111663256357,-0.03317743349897691,-0.2870505700087694
1745335316.7030318,0.91866,0.211121,0.20496,-62.49250000000001,22.863750000000003,-20.88625,-0.2727272727272727,-0.030985092078339667,-0.28485822858813215
1745335316.7062092,0.854976,0.208559,0.172813,-61.783750000000005,24.85,-20.195,-0.2727272727272727,-0.030985092078339667,-0.28485822858813215
1745335316.7092836,0.915183,0.264008,0.19580999999999998,-61.783750000000005,24.115000000000002,-24.325000000000003,-0.2737503653902368,-0.032008184741303715,-0.28675825781935105
1745335316.7123046,0.915793,0.251076,0.0008539999999999999,-62.98250000000001,29.356250000000003,-24.438750000000002,-0.2737503653902368,-0.032008184741303715,-0.28675825781935105
1745335316.715379,0.8857809999999999,0.289933,0.204716,-63.096250000000005,30.703750000000003,-22.137500000000003,-0.2655656240865244,-0.03317743349897691,-0.287635194387606
1745335316.7183757,0.937082,0.304085,0.019764,-61.60000000000001,33.705000000000005,-22.715000000000003,-0.2655656240865244,-0.03317743349897691,-0.287635194387606
1745335316.721384,0.8879159999999999,0.202215,0.210816,-61.59125000000001,31.613750000000003,-22.968750000000004,-0.26600409237065187,-0.032008184741303715,-0.2871967261034785
1745335316.7258844,0.935496,0.23668,-0.019398,-61.89750000000001,33.32,-20.88625,-0.263227126571178,-0.03054662379421222,-0.2895352236188249
1745335316.7296672,0.88572,0.241011,0.051606,-60.23500000000001,34.685,-22.163750000000004,-0.263227126571178,-0.03054662379421222,-0.2895352236188249
1745335316.733252,0.866505,0.274927,0.046238,-58.59875,34.571250000000006,-18.9175,-0.26132709733995907,-0.029523531131248174,-0.28646594562993277
1745335316.7364168,0.890295,0.223748,0.064965,-59.001250000000006,31.552500000000002,-18.173750000000002,-0.26132709733995907,-0.029523531131248174,-0.28646594562993277
1745335316.7396622,0.970815,0.15433,0.032269,-56.41125,33.346250000000005,-21.192500000000003,-0.2610347851505408,-0.03127740426775796,-0.29143525285004385
1745335316.7428546,0.931836,0.214354,0.065636,-55.26500000000001,31.465000000000003,-23.598750000000003,-0.2610347851505408,-0.03127740426775796,-0.29143525285004385
1745335316.7459157,0.91988,0.24790399999999999,-0.043554,-54.09250000000001,37.196250000000006,-21.805000000000003,-0.2569424144986846,-0.03259280912014031,-0.29026600409237063
1745335316.748931,0.917928,0.242414,0.169702,-52.972500000000004,32.112500000000004,-21.35875,-0.2569424144986846,-0.03259280912014031,-0.29026600409237063
1745335316.7519338,0.8796809999999999,0.238815,0.057645,-51.502500000000005,31.867500000000003,-22.715000000000003,-0.2569424144986846,-0.02820812627886583,-0.29231218941829873
1745335316.7549162,0.830881,0.180987,-0.020374,-51.712500000000006,32.252500000000005,-23.712500000000002,-0.2569424144986846,-0.02820812627886583,-0.29231218941829873
1745335316.758777,0.771406,0.29243399999999997,0.149633,-51.275000000000006,27.518750000000004,-21.805000000000003,-0.2614732534346682,-0.03127740426775796,-0.29596609178602745
1745335316.7635756,0.799527,0.264008,-0.02684,-48.685,21.245,-22.907500000000002,-0.25913475591932184,-0.02981584332066647,-0.2933352820812628
1745335316.767133,0.8130689999999999,0.269193,-0.014152,-49.04375,23.003750000000004,-22.688750000000002,-0.25913475591932184,-0.02981584332066647,-0.2933352820812628
1745335316.7703836,0.81069,0.285114,0.045811,-48.99125000000001,15.70625,-21.437500000000004,-0.2604501607717042,-0.02353113124817305,-0.2912890967553347
1745335316.7735806,0.856623,0.219173,0.032757,-48.658750000000005,17.01875,-23.21375,-0.2604501607717042,-0.02353113124817305,-0.2912890967553347
1745335316.7768435,0.819413,0.269559,-0.011163,-48.11625000000001,15.478750000000002,-23.738750000000003,-0.2610347851505408,-0.024408067816427945,-0.29757380882782813
1745335316.7799895,0.794708,0.259494,0.07381,-48.49250000000001,12.0225,-23.135,-0.2610347851505408,-0.024408067816427945,-0.29757380882782813
1745335316.783042,0.759877,0.25973799999999997,0.038064,-48.27375000000001,8.14625,-24.622500000000002,-0.25884244372990356,-0.022654194679918152,-0.30473545746857644
1745335316.786116,0.781166,0.256261,0.114253,-47.565000000000005,2.8175000000000003,-21.945000000000004,-0.25884244372990356,-0.022654194679918152,-0.30473545746857644
1745335316.7952356,0.898042,0.248941,0.017446,-47.923750000000005,-5.34625,-23.380000000000003,-0.2516807950891552,-0.022946506869336452,-0.2917275650394621
1745335316.8021724,0.931775,0.211792,0.024949,-47.95,-11.506250000000001,-23.406250000000004,-0.25767319497223035,-0.024261911721718796,-0.2987430575855013
1745335316.8056364,0.904996,0.200202,0.049715,-48.658750000000005,-13.930000000000001,-24.045,-0.2614732534346682,-0.02075416544869921,-0.29494299912306343
1745335316.808772,0.910547,0.17976699999999998,0.090097,-48.9825,-16.021250000000002,-25.628750000000004,-0.2614732534346682,-0.02075416544869921,-0.29494299912306343
1745335316.812131,0.878339,0.208986,0.099064,-49.096250000000005,-21.595000000000002,-25.821250000000003,-0.2614732534346682,-0.023969599532300497,-0.28734288219818765
1745335316.815351,0.831735,0.19550499999999998,0.073749,-48.33500000000001,-23.712500000000002,-25.795,-0.2614732534346682,-0.023969599532300497,-0.28734288219818765
1745335316.8186245,0.831247,0.199409,0.11486299999999999,-49.455000000000005,-26.88875,-26.652500000000003,-0.2610347851505408,-0.021923414206372407,-0.2877813504823151
1745335316.8217044,0.872544,0.207156,0.09028,-50.102500000000006,-29.793750000000003,-27.230000000000004,-0.2610347851505408,-0.021923414206372407,-0.2877813504823151
1745335316.8249109,0.898042,0.192333,0.099796,-49.472500000000004,-31.937500000000004,-26.985000000000003,-0.26366559485530544,-0.02353113124817305,-0.28588132125109617
1745335316.8280418,0.930616,0.198189,0.118584,-49.77875,-34.081250000000004,-27.816250000000004,-0.26366559485530544,-0.02353113124817305,-0.28588132125109617
1745335316.8320718,0.950746,0.192699,0.116815,-49.48125,-35.28,-28.393750000000004,-0.26585793627594273,-0.020023384975153463,-0.29450453083893596
1745335316.837173,0.9718519999999999,0.191357,0.139751,-50.7325,-37.45,-26.766250000000003,-0.2673194972230342,-0.019146448406898567,-0.29114294066062557
1745335316.8411992,0.99125,0.164029,0.143472,-49.315000000000005,-38.6225,-27.536250000000003,-0.2673194972230342,-0.019146448406898567,-0.29114294066062557
1745335316.844685,1.022055,0.162687,0.160125,-49.48125,-39.12125,-27.063750000000002,-0.26834258988599824,-0.02046185325928091,-0.29260450160771706
1745335316.8482428,1.060607,0.134688,0.159271,-50.627500000000005,-38.28125000000001,-26.958750000000002,-0.26834258988599824,-0.02046185325928091,-0.29260450160771706
1745335316.8548381,1.10105,0.125599,0.157746,-49.752500000000005,-40.048750000000005,-26.617500000000003,-0.27243496053785443,-0.01622332651271558,-0.2896813797135341
1745335316.8586657,1.110627,0.101016,0.16652999999999998,-48.0375,-38.84125,-24.683750000000003,-0.27243496053785443,-0.01622332651271558,-0.2896813797135341
1745335316.8620064,1.082262,0.101809,0.182024,-48.361250000000005,-40.915000000000006,-22.855,-0.27097339959076294,-0.016515638702133878,-0.2866121017246419
1745335316.8654478,1.07055,0.09759999999999999,0.163724,-47.38125,-41.27375000000001,-24.59625,-0.27097339959076294,-0.016515638702133878,-0.2866121017246419
1745335316.8713508,1.058472,0.096075,0.15359799999999998,-47.29375,-42.245000000000005,-22.5225,-0.27345805320081845,-0.011254019292604502,-0.2871967261034785
1745335316.8753912,1.060485,0.099613,0.171898,-46.34,-43.89000000000001,-21.805000000000003,-0.27199649225372696,-0.014177141186787489,-0.2829581993569132
1745335316.8787425,1.056093,0.102907,0.165493,-46.80375000000001,-44.38875,-20.69375,-0.27199649225372696,-0.014177141186787489,-0.2829581993569132
1745335316.882087,1.056947,0.12254899999999999,0.160247,-45.24625,-43.86375,-20.273750000000003,-0.27813504823151125,-0.014907921660333235,-0.2820812627886583
1745335316.8856666,1.039745,0.131699,0.18501299999999998,-44.16125,-44.45,-19.337500000000002,-0.28076585793627595,-0.011838643671441098,-0.28427360420929554
1745335316.8889945,1.026081,0.149999,0.178974,-43.75000000000001,-44.38875,-18.22625,-0.28076585793627595,-0.011838643671441098,-0.28427360420929554
1745335316.8923395,1.033035,0.162199,0.181902,-42.29750000000001,-45.675000000000004,-17.92,-0.27959660917860274,-0.009061677871967261,-0.28675825781935105
1745335316.8956857,1.030168,0.169641,0.198006,-42.87500000000001,-46.1475,-17.70125,-0.27959660917860274,-0.009061677871967261,-0.28675825781935105
1745335316.8989298,1.02114,0.178181,0.191296,-43.88125,-46.2875,-16.98375,-0.28164279450453084,-0.014323297281496639,-0.28222741888336744
1745335316.9030836,1.022665,0.174826,0.195993,-43.72375,-47.6,-16.84375,-0.28164279450453084,-0.014323297281496639,-0.28222741888336744
1745335316.9105,1.066524,0.184891,0.18348799999999998,-42.901250000000005,-49.245000000000005,-15.732500000000002,-0.28646594562993277,-0.012861736334405145,-0.275942706810874
1745335316.9140532,1.090192,0.15738,0.197518,-43.855000000000004,-49.21875000000001,-14.595,-0.28646594562993277,-0.012861736334405145,-0.275942706810874
1745335316.917596,1.103185,0.149755,0.188978,-44.04750000000001,-50.49625,-13.238750000000001,-0.28631978953522363,-0.010230926629640456,-0.2712657117801812
1745335316.9214654,1.111603,0.142008,0.196603,-44.835,-51.782500000000006,-11.55,-0.28631978953522363,-0.010230926629640456,-0.2712657117801812
1745335316.924866,1.117642,0.121878,0.196237,-46.20875,-52.4825,-9.275,-0.29026600409237063,-0.009792458345513008,-0.26951183864367145
1745335316.9281962,1.142652,0.09174399999999999,0.20349599999999998,-45.68375,-53.401250000000005,-8.19875,-0.29026600409237063,-0.009792458345513008,-0.26951183864367145
1745335316.9315536,1.143445,0.085522,0.192943,-44.84375000000001,-54.95875,-4.742500000000001,-0.2933352820812628,-0.006577024261911721,-0.2664425606547793
1745335316.9348686,1.158085,0.072895,0.200019,-45.438750000000006,-56.463750000000005,-4.9,-0.2933352820812628,-0.00467699503069278,-0.26629640456007014
1745335316.9391925,1.148081,0.066307,0.191845,-46.2875,-57.2775,-4.26125,-0.29611224788073665,-0.00467699503069278,-0.26629640456007014
1745335316.9437697,1.125389,0.074542,0.199226,-46.2875,-59.675000000000004,-1.8550000000000002,-0.2978661210172464,-0.0017538731365097924,-0.2641040631394329
1745335316.9478292,1.130391,0.070211,0.184159,-46.12125,-61.39875000000001,-0.08750000000000001,-0.3009353990061386,-0.00014615609470914936,-0.2670271850336159
1745335316.95131,1.12484,0.071797,0.20435,-46.66375000000001,-62.98250000000001,3.0187500000000003,-0.3009353990061386,-0.00014615609470914936,-0.2670271850336159
1745335316.9548674,1.107516,0.06954,0.172569,-45.876250000000006,-65.24000000000001,5.34625,-0.30371236480561237,0.0017538731365097924,-0.26541946799181526
1745335316.958353,1.076894,0.066795,0.15884399999999999,-46.94375,-66.97250000000001,8.085,-0.30371236480561237,0.0017538731365097924,-0.26541946799181526
1745335316.9644427,1.104893,0.065148,0.13047899999999998,-47.53875000000001,-68.32875,12.635000000000002,-0.3051739257527039,0.00482315112540193,-0.2594270681087401
1745335316.9679332,1.1529,0.049227,0.14682699999999999,-46.89125000000001,-71.09375,14.656250000000002,-0.3054662379421222,0.0036539023677287343,-0.2519731072785735
1745335316.971253,1.163392,-0.009333,0.086315,-47.46000000000001,-72.68625,17.290000000000003,-0.3054662379421222,0.0036539023677287343,-0.2519731072785735
1745335316.977046,1.248426,0.064599,0.164639,-49.673750000000005,-77.9625,22.382500000000004,-0.3116047939199065,0.005261619409529378,-0.2503653902367729
1745335316.981076,1.303265,0.066124,0.165432,-50.435,-78.75875,23.712500000000002,-0.31189710610932475,0.0040923706518561824,-0.24466530254311605
1745335316.9848003,1.297287,0.024339,0.15945399999999998,-52.395,-77.81375000000001,23.992500000000003,-0.31511254019292606,0.011107863197895352,-0.2413037123648056
1745335316.9883168,1.279353,0.017873,0.18934399999999998,-52.727500000000006,-77.42,23.738750000000003,-0.31511254019292606,0.011107863197895352,-0.2413037123648056
1745335316.991896,1.251354,0.026657,0.182085,-54.503750000000004,-78.65375,23.135,-0.3152586962876352,0.012861736334405145,-0.2410114001753873
1745335316.9952848,1.236287,0.004697,0.225578,-54.80125,-78.09375000000001,22.461250000000003,-0.3152586962876352,0.012861736334405145,-0.2410114001753873
1745335316.9985583,1.203164,0.042638999999999996,0.186294,-55.352500000000006,-76.56250000000001,22.5225,-0.3219818766442561,0.013154048523823443,-0.23165741011400176
1745335317.0020711,1.167174,0.062037,0.205814,-56.41125,-76.00250000000001,25.042500000000004,-0.3219818766442561,0.013154048523823443,-0.23165741011400176
1745335317.0053997,1.1868159999999999,0.077592,0.196481,-57.75000000000001,-76.02875,27.816250000000004,-0.3178895059923999,0.020315697164571763,-0.23458053200818474
1745335317.0090818,1.206641,0.042822,0.188368,-56.980000000000004,-72.8525,29.085000000000004,-0.3232972814966384,0.023677287342882197,-0.2306343174510377
1745335317.0190783,1.206458,0.030012,0.196664,-54.22375,-59.018750000000004,26.976250000000004,-0.32870505700087693,0.02601578485822859,-0.22873428821981875
1745335317.0223625,1.150643,0.054839,0.167384,-53.51500000000001,-56.0525,23.6075,-0.33133586670564164,0.029523531131248174,-0.22478807366267173
1745335317.026007,1.020713,0.100589,0.170312,-51.90500000000001,-52.19375,18.865000000000002,-0.33133586670564164,0.029523531131248174,-0.22478807366267173
1745335317.0294397,0.867603,0.149511,0.132065,-51.878750000000004,-52.675000000000004,12.801250000000001,-0.33498976907337036,0.032008184741303715,-0.22405729318912598
1745335317.0326982,0.8221579999999999,0.121451,0.138226,-48.93000000000001,-51.143750000000004,8.006250000000001,-0.33498976907337036,0.032008184741303715,-0.22405729318912598
1745335317.0360794,0.8979199999999999,0.219295,0.109861,-45.9025,-47.01375,-0.385,-0.3346974568839521,0.03478515054077755,-0.21631102016954107
1745335317.0393844,0.996679,0.196359,0.191113,-45.68375,-46.681250000000006,-7.262500000000001,-0.3346974568839521,0.03478515054077755,-0.21631102016954107
1745335317.0428743,1.02541,0.336659,0.091988,-45.79750000000001,-35.63875,-9.808750000000002,-0.33528208126278863,0.03259280912014031,-0.21777258111663256
1745335317.0489979,1.1224,0.44334799999999996,0.201788,-46.50625,-27.230000000000004,-11.138750000000002,-0.3428821981876644,0.036246711487869045,-0.20768781058170124
1745335317.0528815,1.157963,0.279136,0.044225,-47.32000000000001,-13.396250000000002,-12.57375,-0.3439052908506285,0.03653902367728734,-0.21061093247588425
1745335317.0564482,1.077809,0.374479,0.335256,-46.06875,-12.976250000000002,-7.595000000000001,-0.3439052908506285,0.03653902367728734,-0.21061093247588425
1745335317.0600677,0.945866,0.171654,0.495564,-44.6775,-20.0025,-2.8000000000000003,-0.3398129201987723,0.03653902367728734,-0.1989184448991523
1745335317.0637236,0.9484279999999999,0.203618,0.181841,-47.89750000000001,-14.542500000000002,-4.40125,-0.3398129201987723,0.03653902367728734,-0.1989184448991523
1745335317.0704298,0.959591,0.24705,0.251442,-47.95,-20.090000000000003,-3.0975,-0.34361297866121016,0.03975445776088863,-0.21031862028646595
1745335317.0740197,1.089033,0.22936,0.099735,-48.41375000000001,-15.820000000000002,-6.510000000000001,-0.342443729903537,0.03975445776088863,-0.21031862028646595
1745335317.0774295,1.055727,0.09436699999999999,0.31799299999999997,-47.43375,-16.66,-9.7825,-0.34478222741888337,0.03975445776088863,-0.20827243496053785
1745335317.0819852,0.974231,0.211365,0.439627,-47.783750000000005,-19.083750000000002,-8.557500000000001,-0.34478222741888337,0.03975445776088863,-0.20827243496053785
1745335317.0872657,0.951356,0.163236,0.09436699999999999,-48.41375000000001,-13.2825,-8.75,-0.33995907629348143,0.04180064308681672,-0.20593393744519145
1745335317.091313,0.909937,0.188917,0.193309,-48.361250000000005,-12.3375,-4.4275,-0.34682841274481147,0.04077755042385268,-0.20681087401344636
1745335317.0949576,0.921893,0.201788,0.37027,-47.81875,-12.486250000000002,-1.7675,-0.34682841274481147,0.04077755042385268,-0.2075416544869921
1745335317.0986402,0.887794,0.14005599999999999,0.318359,-46.41875,-14.840000000000002,-0.77,-0.3444899152294651,0.04340836012861737,-0.2075416544869921
1745335317.1021616,0.940864,0.146278,0.099979,-48.825,-8.242500000000001,-1.49625,-0.3460976322712657,0.04457760888629056,-0.2072493422975738
1745335317.105499,0.901641,0.141459,0.355752,-47.573750000000004,-12.3375,0.0,-0.3460976322712657,0.04457760888629056,-0.2072493422975738
1745335317.1088092,0.935008,0.045384,0.183915,-49.21000000000001,-9.275,-0.88375,-0.34478222741888337,0.04940076001169249,-0.20491084478222743
1745335317.1120632,0.9432429999999999,0.09211,0.288774,-50.35625,-10.6925,-1.21625,-0.34478222741888337,0.04940076001169249,-0.20491084478222743
1745335317.116803,0.960506,0.084546,0.306159,-47.87125,-12.197500000000002,-0.7525000000000001,-0.3455130078924291,0.04603916983338205,-0.20096463022508038
1745335317.1250677,1.02358,0.090463,0.224358,-51.931250000000006,-11.051250000000001,1.6887500000000002,-0.34916691026015784,0.0470622624963461,-0.20461853259280913
1745335317.128766,1.086227,0.087108,0.355935,-51.52875,-12.582500000000001,4.1825,-0.3500438468284127,0.049693072201110786,-0.1997953814674072
1745335317.1324818,1.01077,0.07442,0.158661,-53.30500000000001,-8.4,5.013750000000001,-0.35325928091201403,0.045893013738672904,-0.2006723180356621
1745335317.1360128,1.003938,0.072407,0.220332,-52.535000000000004,-8.041250000000002,7.175000000000001,-0.35325928091201403,0.045893013738672904,-0.2006723180356621
1745335317.1394506,1.018578,0.13017399999999998,0.236741,-54.53000000000001,-7.043750000000001,8.120000000000001,-0.35092078339666766,0.04662379421221865,-0.20140309850920785
1745335317.14291,1.119472,0.045566999999999996,0.161345,-55.92125000000001,-3.5875000000000004,7.28875,-0.35092078339666766,0.04662379421221865,-0.20140309850920785
1745335317.1465492,0.955016,0.11870599999999999,0.181536,-56.00000000000001,0.5075000000000001,8.785,-0.34712072493422974,0.051885413621748026,-0.1983338205203157
1745335317.1502564,0.971364,-0.002562,0.222528,-56.65625000000001,-1.54875,8.478750000000002,-0.34712072493422974,0.051885413621748026,-0.1983338205203157
1745335317.1568804,1.023824,0.079239,0.23912,-56.57750000000001,2.4062500000000004,7.673750000000001,-0.349313066354867,0.05583162817889506,-0.20447237649809996
1745335317.1611927,0.972706,0.043432,0.29761899999999997,-57.365,6.090000000000001,8.811250000000001,-0.3496053785442853,0.05583162817889506,-0.20447237649809996
1745335317.164794,0.927505,-0.057828,0.160796,-56.93625000000001,11.4975,7.253750000000001,-0.35296696872259575,0.05583162817889506,-0.2024261911721719
1745335317.1690798,0.918782,0.075701,0.161528,-56.035000000000004,10.43875,7.315,-0.35296696872259575,0.05583162817889506,-0.1983338205203157
1745335317.1725783,0.8812059999999999,0.00915,0.200507,-55.571250000000006,10.963750000000001,7.1225000000000005,-0.34975153463899444,0.0580239695995323,-0.1983338205203157
1745335317.1791177,0.850035,-0.019093,0.178974,-55.4575,12.0225,6.8950000000000005,-0.35296696872259575,0.06430868167202572,-0.2006723180356621
1745335317.1826787,0.897676,-0.0051849999999999995,0.17885199999999998,-54.18000000000001,12.250000000000002,6.763750000000001,-0.35589009061677873,0.06240865244080678,-0.19760304004676996
1745335317.18666,0.915061,0.040687,0.223504,-53.602500000000006,9.7125,6.8425,-0.35589009061677873,0.06240865244080678,-0.19760304004676996
1745335317.1926057,0.893833,-0.036295,0.226493,-51.25750000000001,10.298750000000002,6.20375,-0.3507746273019585,0.06328558900906167,-0.19467991815258695
1745335317.1967726,0.931958,-0.06709999999999999,0.223077,-48.19500000000001,8.65375,3.7362500000000005,-0.35033615901783105,0.06489330605086233,-0.1983338205203157
1745335317.2003937,0.975085,-0.066551,0.13047899999999998,-47.67875000000001,9.625000000000002,2.3800000000000003,-0.3547208418591055,0.06620871090324466,-0.19292604501607716
1745335317.2041137,0.926163,-0.076616,0.178608,-45.438750000000006,10.377500000000001,0.9450000000000001,-0.3547208418591055,0.06620871090324466,-0.19292604501607716
1745335317.2076387,0.905484,-0.049715,0.218685,-43.44375,8.4875,-0.5775,-0.35179771996492254,0.06226249634609763,-0.19234142063724058
1745335317.2110953,0.876875,-0.043066,0.16713999999999998,-43.28625,8.758750000000001,-1.9162500000000002,-0.35179771996492254,0.06226249634609763,-0.19234142063724058
1745335317.2146773,0.905606,-0.009211,0.22326,-41.39625,8.28625,-2.9925,-0.35325928091201403,0.06518561824028062,-0.1942414498684595
1745335317.218067,0.920246,0.030744,0.142008,-39.87375,10.517500000000002,-2.9662500000000005,-0.35325928091201403,0.06518561824028062,-0.1942414498684595
1745335317.2218997,0.893223,0.024461,0.215696,-38.78,10.605,-3.6575,-0.3510669394913768,0.06533177433498977,-0.19336451330020463
1745335317.2283413,0.863516,0.012627,0.218258,-37.03875,13.44875,-3.6312500000000005,-0.35223618824905,0.06737795966091786,-0.19161064016369483
1745335317.2347383,0.901458,-0.010003999999999999,0.138775,-36.977500000000006,15.093750000000002,-3.10625,-0.35384390529085064,0.06767027185033615,-0.19175679625840397
1745335317.2384238,0.9043249999999999,-0.018483,0.159881,-36.35625,16.012500000000003,-2.3275,-0.3525285004384683,0.06664717918737212,-0.19190295235311314
1745335317.2422569,0.92415,-0.038857,0.165676,-35.673750000000005,13.440000000000001,-2.7125000000000004,-0.3525285004384683,0.06664717918737212,-0.19190295235311314
1745335317.2457373,0.811483,-0.040443,0.088145,-35.673750000000005,17.35125,-2.1612500000000003,-0.3531131248173049,0.06752411575562701,-0.19131832797427653
1745335317.2491062,0.829844,-0.031781,0.150121,-35.86625,14.315000000000001,-2.54625,-0.3531131248173049,0.06752411575562701,-0.19131832797427653
1745335317.2525003,0.815387,-0.015493999999999999,0.068564,-33.97625,14.332500000000001,-2.87875,-0.35632855890090614,0.0698626132709734,-0.19131832797427653
1745335317.2559185,0.800442,-0.012505,0.036112,-31.63125,15.225000000000001,-3.7975000000000003,-0.3531131248173049,0.07044723764981,-0.19497223034200525
1745335317.2627637,0.80337,0.034099,0.060207,-31.115000000000002,13.020000000000001,-2.4062500000000004,-0.3535515931014323,0.07220111078631979,-0.19365682548962293
1745335317.2670896,0.760487,0.074054,0.03233,-29.855000000000004,11.602500000000001,-3.4037500000000005,-0.3535515931014323,0.07220111078631979,-0.19365682548962293
1745335317.270703,0.711016,0.136823,0.035807,-30.458750000000002,10.185,-4.7075000000000005,-0.35150540777550426,0.07512423268050278,-0.19117217187956737
1745335317.2743664,0.670695,0.080398,0.039162,-31.053750000000004,8.172500000000001,-4.9350000000000005,-0.35603624671148787,0.07746273019584916,-0.1939491376790412
1745335317.277954,0.687531,0.123342,0.013054,-30.563750000000002,4.655,-7.621250000000001,-0.35603624671148787,0.07746273019584916,-0.1939491376790412
1745335317.2814255,0.733098,0.16097899999999998,-0.026657,-30.240000000000002,6.947500000000001,-8.557500000000001,-0.35223618824905,0.07980122771119556,-0.1983338205203157
1745335317.2880833,0.773541,0.09881999999999999,0.058072,-28.490000000000002,7.481250000000001,-11.76875,-0.3504823151125402,0.07790119847997662,-0.19321835720549546
1745335317.292128,0.767929,0.134017,0.017263,-28.542500000000004,4.7075000000000005,-11.856250000000001,-0.3504823151125402,0.07790119847997662,-0.19321835720549546
1745335317.2987924,0.754692,0.122976,-0.017506999999999998,-29.828750000000003,6.0025,-13.440000000000001,-0.3498976907337036,0.07950891552177726,-0.18971061093247588
1745335317.3030782,0.785192,0.164334,-0.00976,-28.113750000000003,8.356250000000001,-14.1575,-0.35340543700672317,0.07950891552177726,-0.18971061093247588
1745335317.306655,0.8297829999999999,0.18781899999999999,0.074115,-28.46375,8.715000000000002,-14.262500000000001,-0.35325928091201403,0.07658579362759427,-0.19073370359543992
1745335317.3112001,0.847778,0.190503,0.092537,-28.551250000000003,9.59875,-17.622500000000002,-0.3545746857643964,0.07702426191172172,-0.18576439637532885
1745335317.3146377,0.832711,0.209108,0.10174799999999999,-28.078750000000003,10.82375,-19.031250000000004,-0.3545746857643964,0.07702426191172172,-0.18576439637532885
1745335317.318043,0.821975,0.236375,0.082472,-28.35,13.693750000000001,-19.60875,-0.35545162233265126,0.07556270096463022,-0.18971061093247588
1745335317.321487,0.837652,0.243024,0.156709,-30.073750000000004,12.888750000000002,-19.50375,-0.35545162233265126,0.07556270096463022,-0.18971061093247588
1745335317.3249016,0.811788,0.227286,0.099308,-27.37,15.198750000000002,-19.88875,-0.34916691026015784,0.0808243203741596,-0.18795673779596608
1745335317.3288789,0.806847,0.22106399999999998,0.097417,-27.011250000000004,17.92875,-19.17125,-0.34916691026015784,0.0808243203741596,-0.18795673779596608
1745335317.3350239,0.856135,0.139324,0.06770999999999999,-26.85375,17.736250000000002,-19.810000000000002,-0.3573516515638702,0.07921660333235896,-0.18927214264834843
1745335317.3419886,0.892552,0.113887,0.113216,-26.031250000000004,22.67125,-18.1475,-0.355159310143233,0.0811166325635779,-0.18941829874305757
1745335317.3455706,0.8805959999999999,0.06478199999999999,0.126453,-24.4825,21.8575,-17.01,-0.355159310143233,0.0811166325635779,-0.18941829874305757
1745335317.3490767,0.8815109999999999,0.059841,0.11956,-24.395000000000003,22.618750000000002,-16.345000000000002,-0.35325928091201403,0.07731657410114001,-0.18766442560654778
1745335317.3526514,0.913109,0.075213,0.086559,-24.045,24.22875,-15.435000000000002,-0.35325928091201403,0.07731657410114001,-0.18766442560654778
1745335317.3561273,0.935923,0.065453,0.127795,-23.03,24.2025,-15.618750000000002,-0.35895936860567085,0.08053200818474131,-0.18664133294358376
1745335317.359532,0.968253,0.011651,0.108275,-23.6075,24.70125,-13.685,-0.35895936860567085,0.08053200818474131,-0.18664133294358376
1745335317.362915,0.987773,0.02928,0.09759999999999999,-23.38875,24.89375,-13.440000000000001,-0.35779011984799763,0.07833966676410406,-0.19321835720549546
1745335317.3682444,0.99735,0.01281,0.08003199999999999,-22.347500000000004,25.156250000000004,-11.252500000000001,-0.35647471499561534,0.07790119847997662,-0.18795673779596608
1745335317.3725402,0.970754,0.031415,0.06417199999999999,-21.42,26.941250000000004,-14.595,-0.35647471499561534,0.040485238234434374,-0.1962876351943876
1745335317.376404,0.926468,0.052582,0.050752,-20.99125,26.24125,-14.183750000000002,-0.3566208710903245,0.07351651563870214,-0.1962876351943876
1745335317.3798082,0.896761,0.105835,0.034648,-19.78375,26.468750000000004,-13.405000000000001,-0.3535515931014323,0.07863197895352236,-0.19000292312189418
1745335317.3831747,0.928237,0.216367,0.097417,-19.433750000000003,24.841250000000002,-11.471250000000001,-0.3535515931014323,0.07863197895352236,-0.19000292312189418
1745335317.3865712,1.029863,0.239913,0.074237,-18.445,19.906250000000004,-6.8950000000000005,-0.35179771996492254,0.07658579362759427,-0.19248757673194972
1745335317.3906531,0.906887,0.014213,-0.012199999999999999,-19.048750000000002,21.586250000000003,-10.526250000000001,-0.35179771996492254,0.07658579362759427,-0.19248757673194972
1745335317.3967476,0.948916,0.164334,0.059047999999999996,-16.450000000000003,17.2025,-13.072500000000002,-0.35179771996492254,0.07790119847997662,-0.19701841566793335
1745335317.4007323,1.054446,0.080093,0.017873,-14.323750000000002,16.3975,-14.490000000000002,-0.35589009061677873,0.07629348143817598,-0.1959953230049693
1745335317.4065137,1.025898,0.104493,-0.035197,-15.662500000000001,24.430000000000003,-19.27625,-0.35749780765857936,0.07263957907044724,-0.20228003507746273
1745335317.41076,0.724375,0.137738,0.10437099999999999,-14.603750000000002,20.7375,-16.012500000000003,-0.35691318327974275,0.07366267173341129,-0.19847997661502484
1745335317.414082,0.693143,0.111264,0.130235,-16.021250000000002,13.562500000000002,-12.853750000000002,-0.35691318327974275,0.07366267173341129,-0.19847997661502484
1745335317.4176273,0.770308,0.018666,0.0053679999999999995,-15.093750000000002,8.732500000000002,-13.851250000000002,-0.355159310143233,0.07629348143817598,-0.19716457176264252
1745335317.421056,0.867969,0.115412,-0.029585,-15.120000000000001,11.025,-14.682500000000001,-0.355159310143233,0.07629348143817598,-0.19716457176264252
1745335317.424373,0.865956,0.102907,-0.027572,-15.146250000000002,13.335,-12.215000000000002,-0.35647471499561534,0.07395498392282958,-0.20052616194095294
1745335317.4278295,0.8392379999999999,0.049776,0.052643,-14.271250000000002,9.065000000000001,-12.740000000000002,-0.35647471499561534,0.07395498392282958,-0.20052616194095294
1745335317.4312644,0.853268,0.026900999999999998,0.001281,-11.78625,7.06125,-13.93875,-0.355159310143233,0.07468576439637532,-0.19716457176264252
1745335317.435089,0.9043249999999999,0.041419,0.0034159999999999998,-12.713750000000001,6.16875,-15.566250000000002,-0.35749780765857936,0.07570885705933937,-0.19760304004676996
1745335317.4407203,0.915244,0.058011,-0.03111,-10.75375,2.63375,-14.761250000000002,-0.35340543700672317,0.07439345220695703,-0.20125694241449868
1745335317.4448972,0.854854,0.03721,-0.036112,-10.071250000000001,1.1025,-13.798750000000002,-0.35340543700672317,0.07439345220695703,-0.20125694241449868
1745335317.4576538,0.915,0.076738,0.04209,-8.540000000000001,-8.627500000000001,-14.070000000000002,-0.35647471499561534,0.07351651563870214,-0.19994153756211633
1745335317.4611886,1.039989,0.063318,-0.024399999999999998,-7.262500000000001,-8.496250000000002,-15.627500000000001,-0.3539900613855598,0.07453960830166619,-0.19584916691026016
1745335317.4646628,0.979538,0.056791,0.005063,-7.612500000000001,-8.54875,-15.461250000000001,-0.3539900613855598,0.07453960830166619,-0.19584916691026016
1745335317.4683664,0.901031,0.085095,-0.054229,-7.726250000000001,-9.275,-14.79625,-0.35895936860567085,0.07380882782812043,-0.19482607424729612
1745335317.4727037,0.893589,0.081618,0.039710999999999996,-6.41375,-11.80375,-16.485000000000003,-0.3639286758257819,0.07234726688102894,-0.19307220111078632
1745335317.4773118,0.942877,0.094489,-0.049654,-7.1225000000000005,-13.422500000000001,-13.90375,-0.3639286758257819,0.07234726688102894,-0.1977491961414791
1745335317.4812016,0.981734,0.096624,-0.041784999999999996,-5.7575,-13.781250000000002,-15.513750000000002,-0.3637825197310728,0.06679333528208126,-0.1977491961414791
1745335317.4843833,0.980514,0.08912099999999999,-0.042883,-5.897500000000001,-15.155000000000001,-15.23375,-0.3605670856474715,0.06927798889213681,-0.1959953230049693
1745335317.487758,0.957029,0.083631,-0.038246999999999996,-5.5125,-13.195000000000002,-14.901250000000001,-0.3605670856474715,0.06927798889213681,-0.1959953230049693
1745335317.4911568,0.9304939999999999,0.08265499999999999,0.012871,-4.1475,-14.34125,-15.23375,-0.3612978661210172,0.06883952060800935,-0.19190295235311314
1745335317.4943008,0.914512,0.073932,-0.010919,-4.47125,-14.81375,-14.37625,-0.3612978661210172,0.06883952060800935,-0.19190295235311314
1745335317.4975042,0.917928,0.050386,-0.024399999999999998,-2.3712500000000003,-15.793750000000001,-14.761250000000002,-0.36100555393159894,0.07161648640748319,-0.19190295235311314
1745335317.5006135,0.9333,0.041846,-0.027023,-1.00625,-17.106250000000003,-15.155000000000001,-0.36100555393159894,0.07161648640748319,-0.19190295235311314
1745335317.5039058,0.962214,0.044102999999999996,-0.013542,-0.29750000000000004,-18.243750000000002,-14.516250000000001,-0.35983630517392573,0.07161648640748319,-0.1873721134171295
1745335317.5082176,1.00772,0.028975,-0.02135,1.8025000000000002,-19.67,-14.236250000000002,-0.35983630517392573,0.07161648640748319,-0.14995615317158725
1745335317.5138862,1.094584,0.007625,-0.016165,4.48,-20.641250000000003,-14.516250000000001,-0.3633440514469453,0.06942414498684595,-0.18152586962876352
1745335317.51736,1.135637,0.053985,-0.050203,6.282500000000001,-20.562500000000004,-13.877500000000001,-0.3648056123940368,0.0695703010815551,-0.1824028061970184
1745335317.5205977,1.123071,0.009882,-0.012749,6.527500000000001,-19.67,-14.708750000000002,-0.3648056123940368,0.0695703010815551,-0.18810289389067525
1745335317.523902,1.091351,0.024339,-0.025742,8.8725,-20.11625,-12.88,-0.3694826074247296,0.06503946214557146,-0.18810289389067525
1745335317.5270574,1.1366129999999999,0.023363,-0.02501,9.826250000000002,-21.262500000000003,-12.495000000000001,-0.3664133294358375,0.06825489622917276,-0.188833674364221
1745335317.5301342,1.156621,0.003843,-0.031293,10.01875,-19.302500000000002,-12.713750000000001,-0.3664133294358375,0.06825489622917276,-0.188833674364221
1745335317.5332537,1.152839,0.0549,-0.000793,10.998750000000001,-19.083750000000002,-11.742500000000001,-0.3664133294358375,0.06635486699795382,-0.1853259280912014
1745335317.5363727,1.181997,0.033672,0.003111,12.64375,-20.44875,-12.66125,-0.3664133294358375,0.06635486699795382,-0.1853259280912014
1745335317.5395555,1.164063,0.06954,-0.033854999999999996,14.962500000000002,-19.13625,-11.576250000000002,-0.36992107570885707,0.06167787196726104,-0.18342589885998245
1745335317.5442731,1.214632,0.052399,-0.025681,12.11875,-18.33125,-12.381250000000001,-0.36992107570885707,0.06167787196726104,-0.18342589885998245
1745335317.5478024,1.236226,0.078385,-0.028121,15.662500000000001,-13.676250000000001,-12.635000000000002,-0.36962876351943874,0.06080093539900614,-0.18839520608009355
1745335317.5515926,1.227442,0.093025,-0.00549,16.21375,-12.083750000000002,-13.685,-0.36962876351943874,0.056562408652440804,-0.18488745980707397
1745335317.5549045,1.231163,0.125721,0.041053,15.916250000000002,-7.210000000000001,-13.763750000000002,-0.3732826658871675,0.056562408652440804,-0.18488745980707397
1745335317.5580053,1.189439,0.150609,0.12017,16.07375,-5.897500000000001,-12.88,-0.37342882198187666,0.05758550131540485,-0.18547208418591055
1745335317.561082,1.1335629999999999,0.124989,0.11254499999999999,17.001250000000002,-6.20375,-12.521250000000002,-0.37342882198187666,0.05758550131540485,-0.18547208418591055
1745335317.5670261,1.095316,0.13237,0.16713999999999998,16.4325,-4.5062500000000005,-10.85875,-0.3756211634025139,0.05787781350482315,-0.18664133294358376
1745335317.570332,1.138382,0.161223,0.160918,17.0625,-4.532500000000001,-10.2725,-0.37605963168664136,0.062116340251388485,-0.18430283542823736
1745335317.5767121,1.217316,0.149572,0.15390299999999998,15.505,-1.26875,-9.196250000000001,-0.37591347559193217,0.059339374451914645,-0.18927214264834843
1745335317.5802755,1.252147,0.155611,0.20904699999999998,14.271250000000002,0.42875,-10.77125,-0.37591347559193217,0.059339374451914645,-0.18927214264834843
1745335317.5834477,1.234335,0.164944,0.171044,12.687500000000002,2.0387500000000003,-10.64,-0.37430575855013154,0.05977784273604209,-0.18810289389067525
1745335317.5865326,1.2322,0.18226799999999999,0.180682,13.92125,3.4912500000000004,-13.01125,-0.37430575855013154,0.05977784273604209,-0.18810289389067525
1745335317.5896194,1.205238,0.180865,0.181048,14.166250000000002,5.74875,-11.1125,-0.3721134171294943,0.056562408652440804,-0.18839520608009355
1745335317.5927486,1.206275,0.174765,0.188856,11.655000000000001,5.416250000000001,-11.637500000000001,-0.3721134171294943,0.056562408652440804,-0.18839520608009355
1745335317.5957825,1.181143,0.212036,0.139751,12.64375,6.83375,-10.307500000000001,-0.37372113417129493,0.05758550131540485,-0.1870798012277112
1745335317.5988104,1.1691259999999999,0.223748,0.15207299999999999,12.55625,8.207500000000001,-9.082500000000001,-0.37372113417129493,0.05758550131540485,-0.1870798012277112
1745335317.6039493,1.2178039999999999,0.22197899999999998,0.171898,12.285000000000002,8.120000000000001,-7.175000000000001,-0.37225957322420344,0.05057000876936568,-0.1832797427652733
1745335317.6074493,1.287405,0.214232,0.148474,13.370000000000001,10.080000000000002,-7.1225000000000005,-0.37430575855013154,0.05144694533762058,-0.18035662087109033
1745335317.610918,1.326201,0.22136899999999998,0.16958,11.270000000000001,12.976250000000002,-5.985,-0.37430575855013154,0.05144694533762058,-0.18035662087109033
1745335317.6140392,1.356823,0.217038,0.194346,13.072500000000002,14.980000000000002,-5.0925,-0.37430575855013154,0.053931598947676115,-0.18766442560654778
1745335317.6202092,1.355237,0.20252,0.246257,12.17125,17.517500000000002,-5.705000000000001,-0.37196726103478517,0.052470038000584626,-0.18795673779596608
1745335317.6233585,1.3623129999999999,0.215269,0.251442,13.781250000000002,18.611250000000002,-5.1450000000000005,-0.37196726103478517,0.052470038000584626,-0.18795673779596608
1745335317.6264102,1.375916,0.205814,0.2745,13.676250000000001,18.54125,-3.4912500000000004,-0.37591347559193217,0.05407775504238527,-0.1870798012277112
1745335317.629453,1.390617,0.224297,0.25986,13.343750000000002,18.515,-1.3037500000000002,-0.37591347559193217,0.05407775504238527,-0.1870798012277112
1745335317.632516,1.3668879999999999,0.12956399999999998,0.350933,14.656250000000002,16.922500000000003,-1.49625,-0.3750365390236773,0.052323881905875474,-0.18766442560654778
1745335317.6360378,1.363045,0.187087,0.268034,13.895000000000001,16.922500000000003,-0.83125,-0.3750365390236773,0.052323881905875474,-0.18766442560654778
1745335317.6413667,1.366766,0.20075099999999999,0.332084,13.895000000000001,14.805000000000001,0.16625,-0.37284419760304005,0.05203156971645718,-0.18941829874305757
1745335317.644828,1.323456,0.167811,0.336415,15.478750000000002,14.000000000000002,-0.026250000000000002,-0.3750365390236773,0.05363928675825782,-0.1862028646594563
1745335317.647891,1.27856,0.277489,0.311344,14.551250000000001,14.367500000000001,0.9187500000000001,-0.3750365390236773,0.05363928675825782,-0.1862028646594563
1745335317.6509788,1.244949,0.159332,0.336598,14.551250000000001,11.383750000000001,0.7175,-0.37196726103478517,0.052470038000584626,-0.18357205495469162
1745335317.654127,1.213351,0.24265799999999998,0.261812,14.490000000000002,9.7125,1.05,-0.37196726103478517,0.052470038000584626,-0.18357205495469162
1745335317.657219,1.176568,0.210023,0.28243,13.728750000000002,7.673750000000001,1.16375,-0.367874890382929,0.04896229172756504,-0.19117217187956737
1745335317.6602418,1.120509,0.25498,0.34111199999999997,13.125000000000002,5.3637500000000005,2.8000000000000003,-0.367874890382929,0.04896229172756504,-0.19117217187956737
1745335317.6632795,1.063962,0.213195,0.268949,11.707500000000001,4.777500000000001,1.6887500000000002,-0.36933645133002047,0.05334697456883952,-0.19029523531131248
1745335317.6662507,1.029436,0.26291,0.357948,12.582500000000001,-2.09125,2.21375,-0.36933645133002047,0.05334697456883952,-0.19029523531131248
1745335317.6729476,1.007415,0.288225,0.286334,13.020000000000001,-3.0537500000000004,2.10875,-0.3715287927506577,0.05539315989476761,-0.19044139140602162
1745335317.677998,1.008147,0.25803,0.278831,10.6225,-8.61875,-0.665,-0.3700672318035662,0.051885413621748026,-0.1945337620578778
1745335317.6815388,1.024678,0.296033,0.369477,9.66,-12.8975,-1.3037500000000002,-0.3700672318035662,0.05524700380005846,-0.1847413037123648
1745335317.6846979,1.015833,0.28011199999999997,0.229909,9.117500000000001,-12.670000000000002,-2.21375,-0.3700672318035662,0.05524700380005846,-0.1847413037123648
1745335317.6879141,1.022543,0.247782,0.272609,8.758750000000001,-18.418750000000003,-3.4912500000000004,-0.3709441683718211,0.055100847705349315,-0.19263373282665888
1745335317.6911154,1.0729899999999999,0.22600499999999998,0.041297,8.4,-13.361250000000002,-4.59375,-0.3709441683718211,0.055100847705349315,-0.19263373282665888
1745335317.6942768,0.95343,0.307745,0.388021,8.977500000000001,-21.035000000000004,-3.77125,-0.37225957322420344,0.05553931598947676,-0.1850336159017831
1745335317.6974413,0.958676,0.191662,0.023851,8.785,-15.9075,-4.68125,-0.37225957322420344,0.05553931598947676,-0.1850336159017831
1745335317.7004828,0.920612,0.211609,0.299266,7.043750000000001,-20.833750000000002,-5.1275,-0.3709441683718211,0.05320081847413037,-0.188833674364221
1745335317.7034836,0.916159,0.237656,0.23985199999999998,8.3825,-19.27625,-4.987500000000001,-0.3709441683718211,0.05320081847413037,-0.188833674364221
1745335317.7065732,0.964593,0.197396,0.146461,9.196250000000001,-19.64375,-5.206250000000001,-0.36977491961414793,0.056562408652440804,-0.19204910844782228
1745335317.7111363,1.00711,0.2196,0.111447,9.633750000000001,-22.155,-4.742500000000001,-0.36977491961414793,0.056562408652440804,-0.19204910844782228
1745335317.715068,1.010587,0.176534,0.149206,8.05,-19.031250000000004,-4.541250000000001,-0.3700672318035662,0.05115463314820228,-0.18605670856474715
1745335317.7186127,0.98332,0.16836,0.21581799999999998,9.31,-18.66375,-5.29375,-0.36977491961414793,0.050131540485238234,-0.19248757673194972
1745335317.7217388,0.939766,0.165493,0.19337,9.065000000000001,-18.637500000000003,-4.24375,-0.36977491961414793,0.050131540485238234,-0.19248757673194972
1745335317.7277763,0.9240889999999999,0.15921,0.247843,11.55,-18.80375,-3.77125,-0.3745980707395498,0.05144694533762058,-0.19000292312189418
1745335317.7309594,0.93025,0.150609,0.24851399999999998,12.8275,-20.282500000000002,-1.16375,-0.37591347559193217,0.049108447822274186,-0.18956445483776674
1745335317.734021,0.966789,0.134749,0.262483,12.801250000000001,-19.302500000000002,-0.74375,-0.37591347559193217,0.049108447822274186,-0.18956445483776674
1745335317.737818,0.983991,0.137921,0.240218,14.770000000000001,-18.891250000000003,-0.47250000000000003,-0.37167494884536684,0.049693072201110786,-0.18342589885998245
1745335317.7418783,1.014674,0.140239,0.20721699999999998,15.391250000000001,-17.63125,1.16375,-0.37167494884536684,0.049693072201110786,-0.18342589885998245
1745335317.7457752,1.043466,0.141398,0.163785,16.87,-13.475000000000001,0.9450000000000001,-0.37693656825489624,0.049693072201110786,-0.1905875475007308
1745335317.748961,1.007598,0.144448,0.224968,19.24125,-12.783750000000001,3.22,-0.37693656825489624,0.0464776381175095,-0.1853259280912014
1745335317.752226,0.979965,0.118645,0.203679,18.80375,-11.0775,3.6312500000000005,-0.37576731949722303,0.0464776381175095,-0.1853259280912014
1745335317.755459,0.971181,0.109434,0.241011,19.78375,-11.471250000000001,3.54375,-0.3772288804443145,0.04779304296989184,-0.1806489330605086
1745335317.7586088,0.983991,0.106933,0.208559,21.262500000000003,-11.165000000000001,4.24375,-0.3772288804443145,0.04779304296989184,-0.1806489330605086
1745335317.7616613,0.962641,0.153476,0.219661,20.6325,-11.55,6.2387500000000005,-0.37635194387605964,0.04837766734872844,-0.18342589885998245
1745335317.7646642,0.991372,0.089853,0.204167,20.580000000000002,-10.578750000000001,6.20375,-0.37635194387605964,0.04837766734872844,-0.18342589885998245
1745335317.7676313,0.982954,0.118645,0.22661499999999998,22.977500000000003,-10.43875,7.53375,-0.3762057877813505,0.04735457468576439,-0.18576439637532885
1745335317.7707305,1.003206,0.083021,0.224846,23.878750000000004,-9.59875,7.927500000000001,-0.3762057877813505,0.04735457468576439,-0.18576439637532885
1745335317.7754607,0.986553,0.08967,0.212707,24.70125,-7.595000000000001,8.898750000000001,-0.37532885121309556,0.04720841859105525,-0.19073370359543992
1745335317.7818573,0.999302,0.10614,0.212646,25.900000000000002,-6.063750000000001,10.526250000000001,-0.3744519146448407,0.0470622624963461,-0.19292604501607716
1745335317.7850325,0.983198,0.11809599999999999,0.198555,25.900000000000002,-6.4575000000000005,10.91125,-0.3744519146448407,0.0470622624963461,-0.19292604501607716
1745335317.788219,0.97661,0.11834,0.198677,24.89375,-5.477500000000001,11.585,-0.3751826951183864,0.04443145279158141,-0.1882490499853844
1745335317.791358,1.001986,0.14005599999999999,0.193492,24.78,-5.5912500000000005,11.9175,-0.3751826951183864,0.04443145279158141,-0.1882490499853844
1745335317.7943912,1.011807,0.135603,0.168543,24.92,-4.786250000000001,13.3,-0.3762057877813505,0.0476468868751827,-0.18181818181818182
1745335317.7973678,1.004365,0.15006,0.177266,25.57625,-4.2787500000000005,12.853750000000002,-0.3762057877813505,0.0476468868751827,-0.18181818181818182
1745335317.800736,0.978196,0.145424,0.199043,25.33125,-4.340000000000001,13.405000000000001,-0.37547500730780475,0.04633148202280035,-0.1826951183864367
1745335317.8038805,0.9545279999999999,0.14152,0.183366,25.383750000000003,-3.7800000000000002,14.043750000000001,-0.37547500730780475,0.04633148202280035,-0.1826951183864367
1745335317.8084755,0.938729,0.152439,0.190747,25.051250000000003,-4.83875,12.66125,-0.37839812920198773,0.04340836012861737,-0.1891259865536393
1745335317.8129554,0.929518,0.148596,0.158051,25.025000000000002,-4.340000000000001,14.761250000000002,-0.3694826074247296,0.04735457468576439,-0.17860274773458054
1745335317.8164074,1.000827,0.175375,0.19611499999999998,25.3575,-5.11875,14.463750000000001,-0.3694826074247296,0.04735457468576439,-0.17860274773458054
1745335317.819474,1.0438319999999999,0.153659,0.192272,25.243750000000002,-5.5912500000000005,15.181250000000002,-0.3750365390236773,0.04983922829581994,-0.18211049400760013
1745335317.8225574,1.075857,0.15555,0.192272,24.26375,-3.42125,15.347500000000002,-0.3750365390236773,0.04983922829581994,-0.18211049400760013
1745335317.8257146,1.086227,0.133956,0.203862,23.065,-2.44125,13.580000000000002,-0.3726980415083309,0.0464776381175095,-0.1758257819351067
1745335317.8287752,1.004853,0.134688,0.217099,22.4875,-1.995,16.1,-0.3726980415083309,0.0464776381175095,-0.1758257819351067
1745335317.8347046,0.9520879999999999,0.085644,0.209596,21.5075,-2.3537500000000002,15.155000000000001,-0.37693656825489624,0.04662379421221865,-0.18211049400760013
1745335317.8377972,0.915366,0.118035,0.183549,21.595000000000002,-3.115,16.091250000000002,-0.37591347559193217,0.048085355159310145,-0.1772873428821982
1745335317.8408213,0.907802,0.130906,0.204472,20.203750000000003,-4.086250000000001,15.426250000000001,-0.37591347559193217,0.048085355159310145,-0.1772873428821982
1745335317.8471768,0.874618,0.127734,0.18440299999999998,17.797500000000003,-3.98125,17.31625,-0.3751826951183864,0.048085355159310145,-0.1832797427652733
1745335317.8507946,0.848998,0.127124,0.204655,17.605,-5.390000000000001,19.67,-0.3782519731072786,0.04852382344343759,-0.18050277696579947
1745335317.8539093,0.822341,0.10309,0.23729,17.438750000000002,-8.321250000000001,20.090000000000003,-0.37489038292896815,0.0464776381175095,-0.1809412452499269
1745335317.8571296,0.82472,0.116327,0.148535,17.771250000000002,-6.790000000000001,21.7175,-0.37489038292896815,0.0464776381175095,-0.1809412452499269
1745335317.8603692,0.846375,0.104554,0.208925,15.312500000000002,-6.956250000000001,22.63625,-0.37196726103478517,0.052470038000584626,-0.17845659163987138
1745335317.8634946,0.867115,0.093147,0.141764,15.006250000000001,-6.01125,21.472500000000004,-0.37196726103478517,0.052470038000584626,-0.17845659163987138
1745335317.8665357,0.873032,0.083631,0.186355,14.000000000000002,-5.258750000000001,22.216250000000002,-0.3766442560654779,0.053931598947676115,-0.17889505992399882
1745335317.8696544,0.864065,0.076616,0.17976699999999998,13.09875,-4.48,21.691250000000004,-0.3766442560654779,0.053931598947676115,-0.17889505992399882
1745335317.8726764,0.874252,0.083448,0.170617,11.602500000000001,-7.253750000000001,22.575000000000003,-0.3744519146448407,0.04852382344343759,-0.18152586962876352
1745335317.875828,0.869128,0.077653,0.165066,10.40375,-5.73125,21.910000000000004,-0.3744519146448407,0.04852382344343759,-0.18152586962876352
1745335317.8807478,0.8593069999999999,0.072224,0.199104,9.2225,-6.85125,22.88125,-0.3705057000876937,0.05276235019000292,-0.17933352820812629
1745335317.8841436,0.820877,0.085522,0.204411,8.461250000000001,-6.405,24.211250000000003,-0.3705057000876937,0.05276235019000292,-0.17933352820812629
1745335317.8897834,0.808982,0.035623999999999996,0.183976,6.772500000000001,-6.9037500000000005,25.1825,-0.3725518854136218,0.051300789242911427,-0.18050277696579947
1745335317.8929803,0.82411,0.056729999999999996,0.174155,3.99,-6.01125,25.488750000000003,-0.3700672318035662,0.05627009646302251,-0.17874890382928968
1745335317.8961518,0.848144,0.094794,0.147254,4.3925,-2.9662500000000005,27.063750000000002,-0.3700672318035662,0.05627009646302251,-0.17874890382928968
1745335317.8992138,0.888587,0.052216,0.182329,4.1825,-4.69875,27.396250000000002,-0.3741596024554224,0.05480853551593101,-0.182987430575855
1745335317.9021888,0.867847,0.064111,0.14621699999999999,3.9550000000000005,-3.19375,27.702500000000004,-0.3741596024554224,0.05480853551593101,-0.182987430575855
1745335317.9055777,0.831979,0.048312,0.125355,2.07375,0.37625000000000003,27.895000000000003,-0.37284419760304005,0.05553931598947676,-0.17801812335574393
1745335317.9086003,0.809897,0.046238,0.176046,1.3125000000000002,0.9012500000000001,28.06125,-0.37284419760304005,0.05553931598947676,-0.17801812335574393
1745335317.9116113,0.783179,0.067222,0.135359,1.61,1.3475000000000001,28.647500000000004,-0.3782519731072786,0.0574393452206957,-0.17714118678748902
1745335317.917306,0.748104,0.052216,0.145668,-0.8400000000000001,0.026250000000000002,29.925000000000004,-0.3725518854136218,0.05480853551593101,-0.17845659163987138
1745335317.9208012,0.770552,0.038064,0.083448,-2.1,2.8525000000000005,29.671250000000004,-0.3725518854136218,0.05480853551593101,-0.17845659163987138
1745335317.9241207,0.768417,0.047763,0.166469,-1.7675,3.4475000000000002,30.222500000000004,-0.3705057000876937,0.0586085939783689,-0.1841566793335282
1745335317.9272294,0.771772,0.017019,0.05246,-2.2662500000000003,5.08375,29.618750000000002,-0.3705057000876937,0.0586085939783689,-0.1841566793335282
1745335317.9303741,0.7570709999999999,0.015677,0.120963,-3.9550000000000005,5.1625000000000005,29.968750000000004,-0.3715287927506577,0.06050862320958784,-0.17874890382928968
1745335317.9334772,0.7138829999999999,-0.013847,0.084851,-3.19375,4.9437500000000005,29.172500000000003,-0.3715287927506577,0.06050862320958784,-0.17874890382928968
1745335317.93649,0.6771,-0.015982,0.104615,-2.75625,3.6050000000000004,28.148750000000003,-0.3705057000876937,0.06255480853551593,-0.17845659163987138
1745335317.9424722,0.669109,0.003904,0.08204499999999999,-4.0075,3.54375,27.15125,-0.3705057000876937,0.06401636948260743,-0.18006430868167203
1745335317.9455462,0.728035,0.031354,0.049715,-3.0537500000000004,3.0450000000000004,27.457500000000003,-0.3705057000876937,0.06401636948260743,-0.18006430868167203
1745335317.9489772,0.7321219999999999,0.056547,0.014274,-2.5375,4.305000000000001,25.961250000000003,-0.3700672318035662,0.06723180356620871,-0.17012569424144988
1745335317.9545753,0.6874089999999999,0.069296,0.064843,-2.6425,4.6375,23.905,-0.3725518854136218,0.06474714995615317,-0.17261034785150542
1745335317.9580572,0.750849,0.099369,-0.0032329999999999998,-2.9487500000000004,3.4650000000000003,20.641250000000003,-0.3725518854136218,0.06474714995615317,-0.17261034785150542
1745335317.9611504,0.741028,0.142618,0.031293,-1.715,2.0387500000000003,18.611250000000002,-0.36875182695118386,0.06913183279742766,-0.17363344051446947
1745335317.9642756,0.693875,0.116266,-0.063745,-0.8487500000000001,2.7387500000000005,16.782500000000002,-0.36875182695118386,0.06913183279742766,-0.17363344051446947
1745335317.9674535,0.516182,0.13786,-0.045323,-0.385,1.39125,13.763750000000002,-0.36217480268927216,0.06650102309266297,-0.16924875767319497
1745335317.9705296,0.562847,0.12864899999999999,0.000366,1.5050000000000001,-1.8637500000000002,11.357500000000002,-0.36217480268927216,0.06650102309266297,-0.16924875767319497
1745335317.9735453,0.638304,0.06283,-0.00915,2.2925000000000004,-3.3950000000000005,6.343750000000001,-0.36422098801520025,0.06708564747149956,-0.17743349897690733
1745335317.9765916,0.779153,0.184037,0.06405,3.5000000000000004,-8.74125,1.2425000000000002,-0.36422098801520025,0.06708564747149956,-0.17743349897690733
1745335317.979639,0.799222,0.227774,-0.041236,2.7825,-5.5912500000000005,-2.3537500000000002,-0.36816720257234725,0.06606255480853551,-0.17187956737795967
1745335317.9827921,0.782264,0.291275,-0.076921,4.313750000000001,-4.62875,-8.58375,-0.36816720257234725,0.06606255480853551,-0.17187956737795967
1745335317.9878728,0.621651,0.19367499999999999,0.182329,6.0375000000000005,-12.617500000000001,-11.585,-0.3674364220988015,0.06606255480853551,-0.17071031862028646
1745335317.9913979,0.701378,0.372222,0.137616,5.022500000000001,-16.415000000000003,-15.23375,-0.37021338789827535,0.06796258403975446,-0.16647179187372113
1745335317.9970193,0.784033,0.19276,-0.107177,3.8237500000000004,-8.662500000000001,-15.925,-0.36977491961414793,0.06401636948260743,-0.17246419175679625
1745335318.000307,0.721935,0.328668,0.155794,7.07,-19.696250000000003,-13.798750000000002,-0.36977491961414793,0.06401636948260743,-0.17246419175679625
1745335318.0036438,0.830332,0.178303,-0.055754,6.991250000000001,-18.47125,-15.155000000000001,-0.36612101724641916,0.06416252557731657,-0.16705641625255774
1745335318.007082,0.896944,0.277489,0.10406599999999999,8.82,-21.673750000000002,-14.682500000000001,-0.36612101724641916,0.06416252557731657,-0.16705641625255774
1745335318.0103617,0.8066639999999999,0.375882,-0.052948,6.553750000000001,-20.142500000000002,-9.91375,-0.37079801227711195,0.06489330605086233,-0.1619409529377375
1745335318.013571,0.259067,0.030012,-0.050142,7.726250000000001,-18.55,-16.091250000000002,-0.37079801227711195,0.06489330605086233,-0.1619409529377375
1745335318.0168207,0.549244,0.162382,0.326106,10.508750000000001,-33.713750000000005,-22.356250000000003,-0.36962876351943874,0.06007015492546039,-0.1657410114001754
1745335318.0208895,1.316868,0.24570799999999998,0.26108,11.602500000000001,-53.06875000000001,-20.142500000000002,-0.36962876351943874,0.0594855305466238,-0.166325635779012
1745335318.0254605,0.789218,0.541619,-0.184586,8.321250000000001,-26.617500000000003,-25.488750000000003,-0.36729026600409237,0.0594855305466238,-0.166325635779012
1745335318.0292222,0.43615,0.297558,0.286151,12.066250000000002,-30.843750000000004,5.897500000000001,-0.3712364805612394,0.06328558900906167,-0.16150248465361006
1745335318.0323586,1.249829,-0.209413,0.075091,12.145000000000001,-37.2575,-7.700000000000001,-0.3712364805612394,0.06328558900906167,-0.16150248465361006
1745335318.0356727,1.0839699999999999,0.395158,-0.041358,12.66125,-36.697500000000005,-9.117500000000001,-0.3731365097924583,0.06109324758842444,-0.1607717041800643
1745335318.0391288,1.085983,0.195932,-0.164883,12.55625,-27.282500000000002,-3.8237500000000004,-0.3729903536977492,0.05846243788365975,-0.15974861151710026
1745335318.0422726,1.302472,0.246745,0.107726,11.357500000000002,-36.67125,1.3562500000000002,-0.3729903536977492,0.05846243788365975,-0.15974861151710026
1745335318.0484216,1.0468819999999999,0.384178,-0.08881599999999999,11.1125,-34.615,3.77125,-0.3750365390236773,0.06109324758842444,-0.1598947676118094
1745335318.0521805,1.270874,0.269681,-0.123769,13.352500000000001,-32.34875,-15.592500000000001,-0.378690441391406,0.06021631102016954,-0.15901783104355452
1745335318.0564535,1.211094,0.40382,0.014029999999999999,13.3175,-25.83875,-9.170000000000002,-0.378690441391406,0.06021631102016954,-0.15901783104355452
1745335318.0611422,1.082567,0.186233,-0.11901099999999999,10.998750000000001,-26.722500000000004,-10.47375,-0.37489038292896815,0.0589009061677872,-0.16135632855890092
1745335318.0648806,0.869616,0.231983,-0.190198,10.45625,-21.927500000000002,-10.106250000000001,-0.3729903536977492,0.05597778427360421,-0.16296404560070155
1745335318.068023,0.73017,0.263032,0.01281,11.165000000000001,-28.122500000000002,-9.283750000000001,-0.3729903536977492,0.05597778427360421,-0.16296404560070155
1745335318.0713546,0.878949,0.409737,-0.06740499999999999,10.5875,-26.635,-2.8875,-0.37109032446653023,0.05495469161064016,-0.15565624086524407
1745335318.0745997,1.075918,0.825025,0.041846,7.945000000000001,-29.645000000000003,-6.62375,-0.37109032446653023,0.05495469161064016,-0.15565624086524407
1745335318.0778663,1.009916,0.482144,0.235765,3.5175000000000005,-32.628750000000004,-10.307500000000001,-0.377667348728442,0.05524700380005846,-0.15960245542239113
1745335318.0809364,0.968741,0.73566,-0.380335,-6.9037500000000005,-9.07375,-6.01125,-0.377667348728442,0.05524700380005846,-0.15960245542239113
1745335318.084105,1.0340719999999999,0.42736599999999997,0.639524,-9.738750000000001,-29.898750000000003,-8.006250000000001,-0.3772288804443145,0.05524700380005846,-0.1503946214557147
1745335318.0871294,1.240496,0.310002,0.03477,-12.11875,-21.035000000000004,-15.0675,-0.3772288804443145,0.05524700380005846,-0.1503946214557147
1745335318.0909984,1.224575,0.365695,0.230092,-14.000000000000002,-23.240000000000002,-14.621250000000002,-0.37605963168664136,0.05203156971645718,-0.14761765565624085
1745335318.096352,0.976,0.21716,-0.290543,-19.950000000000003,-8.74125,-12.740000000000002,-0.37795966091786026,0.052470038000584626,-0.15054077755042386
1745335318.1031234,0.8352729999999999,0.182451,-0.026474,-15.260000000000002,-24.281250000000004,-13.99125,-0.37956737795966095,0.049546916106401634,-0.14966384098216895
1745335318.1064703,1.16022,0.27236499999999997,-0.0059169999999999995,-14.026250000000001,-22.426250000000003,-11.628750000000002,-0.37956737795966095,0.049546916106401634,-0.1483484361297866
1745335318.1098135,1.355481,0.208681,-0.035685,-13.48375,-19.27625,-12.075000000000001,-0.37532885121309556,0.05217772581116632,-0.1483484361297866
1745335318.112914,1.390922,0.20136099999999998,-0.043432,-12.801250000000001,-13.55375,-12.276250000000001,-0.377667348728442,0.051300789242911427,-0.15653317743349898
1745335318.1160722,1.338523,0.183366,0.064355,-12.696250000000001,-14.113750000000001,-11.9175,-0.377667348728442,0.051300789242911427,-0.15653317743349898
1745335318.1192482,1.186572,0.150182,0.028487,-12.55625,-14.253750000000002,-13.107500000000002,-0.37854428529669687,0.05349313066354867,-0.15112540192926044
1745335318.1222994,1.051335,0.118767,-0.116815,-11.471250000000001,-12.10125,-12.941250000000002,-0.37854428529669687,0.05349313066354867,-0.15112540192926044
1745335318.1259754,1.017175,0.100101,0.10431,-9.336250000000001,-17.508750000000003,-12.0225,-0.3781058170125694,0.051739257527038875,-0.14571762642502192
1745335318.1316211,1.184925,0.183122,0.025131999999999998,-10.263750000000002,-17.325000000000003,-12.381250000000001,-0.37372113417129493,0.051300789242911427,-0.14498684595147618
1745335318.13539,1.261785,0.177144,0.009821,-10.430000000000001,-12.670000000000002,-10.797500000000001,-0.37372113417129493,0.051300789242911427,-0.14498684595147618
1745335318.138667,1.206824,0.195627,0.060451,-11.760000000000002,-11.103750000000002,-10.307500000000001,-0.36933645133002047,0.05422391113709442,-0.1403098509207834
1745335318.1421897,1.070001,0.166103,0.079361,-11.24375,-12.110000000000001,-7.481250000000001,-0.36933645133002047,0.05422391113709442,-0.1403098509207834
1745335318.1456747,1.060851,0.165066,0.014274,-13.343750000000002,-13.807500000000001,-8.58375,-0.374744226834259,0.05203156971645718,-0.14162525577316573
1745335318.1489346,1.081286,0.169885,0.059109,-12.495000000000001,-14.953750000000001,-8.085,-0.374744226834259,0.05203156971645718,-0.14162525577316573
1745335318.1522188,1.148203,0.186294,-0.014213,-14.875000000000002,-13.676250000000001,-7.595000000000001,-0.38234434375913473,0.052470038000584626,-0.14644840689856767
1745335318.1579912,1.12667,0.142557,0.059902,-16.17875,-13.623750000000001,-6.1775,-0.3817597193802982,0.05363928675825782,-0.14337912890967552
1745335318.1622503,1.150887,0.161467,0.057096,-16.266250000000003,-14.568750000000001,-7.393750000000001,-0.3817597193802982,0.050131540485238234,-0.14104063139432915
1745335318.1672766,1.259711,0.18379299999999998,0.00042699999999999997,-16.450000000000003,-14.463750000000001,-7.813750000000001,-0.3858520900321543,0.050131540485238234,-0.14104063139432915
1745335318.171217,1.303265,0.199714,-0.041724,-18.22625,-9.45875,-6.23,-0.38146740719087985,0.049546916106401634,-0.143817597193803
1745335318.1744978,1.2826469999999999,0.18178,-0.009699,-19.215000000000003,-4.751250000000001,-4.952500000000001,-0.38146740719087985,0.046916106401636945,-0.14410990938322127
1745335318.1777015,1.272033,0.185135,0.053619,-19.626250000000002,-3.6400000000000006,-4.26125,-0.38146740719087985,0.046916106401636945,-0.14410990938322127
1745335318.1808078,1.315953,0.19947,0.035136,-20.22125,-2.02125,-3.2987500000000005,-0.38044431452791583,0.05042385267465653,-0.1388482899736919
1745335318.1845305,1.369816,0.201605,0.0059169999999999995,-21.315,2.6075000000000004,-2.2487500000000002,-0.38044431452791583,0.05042385267465653,-0.1388482899736919
1745335318.1879015,1.443992,0.199775,0.037332,-21.148750000000003,8.9075,-1.6887500000000002,-0.3821981876644256,0.050131540485238234,-0.13855597778427362
1745335318.1919723,1.438807,0.173179,0.057523,-22.785000000000004,12.416250000000002,-0.63875,-0.3821981876644256,0.050131540485238234,-0.13855597778427362
1745335318.1963208,1.331447,0.126758,0.093452,-20.492500000000003,16.37125,1.3562500000000002,-0.37795966091786026,0.04881613563285589,-0.14425606547793043
1745335318.199982,1.315099,0.06831999999999999,0.083082,-21.42,18.821250000000003,0.385,-0.3791289096755335,0.05086232095878398,-0.14220988015200234
1745335318.2031155,1.296738,0.06466,0.100772,-20.195,18.36625,-0.5775,-0.3791289096755335,0.05086232095878398,-0.14220988015200234
1745335318.2093918,1.305095,0.11699799999999999,0.108519,-18.48,22.758750000000003,1.1900000000000002,-0.37956737795966095,0.05276235019000292,-0.14367144109909383
1745335318.2126155,1.312537,0.108214,0.160308,-16.975,25.016250000000003,1.9687500000000002,-0.3770827243496054,0.05115463314820228,-0.14367144109909383
1745335318.2156951,1.329617,0.107238,0.124074,-15.443750000000001,27.133750000000003,1.11125,-0.3770827243496054,0.05115463314820228,-0.14367144109909383
1745335318.2188098,1.287649,0.111508,0.18117,-14.927500000000002,27.973750000000003,2.9925,-0.37430575855013154,0.049108447822274186,-0.14410990938322127
1745335318.2219124,1.247145,0.150548,0.198677,-14.568750000000001,27.44,4.4887500000000005,-0.37430575855013154,0.049108447822274186,-0.14410990938322127
1745335318.2254379,1.219573,0.13450499999999999,0.22082,-13.510000000000002,25.54125,6.597500000000001,-0.3791289096755335,0.05276235019000292,-0.14527915814089448
1745335318.2307973,1.225795,0.090646,0.236558,-11.655000000000001,22.137500000000003,5.923750000000001,-0.3762057877813505,0.057293189125986556,-0.14674071908798597
1745335318.234579,1.284233,0.087352,0.220881,-11.838750000000001,21.192500000000003,3.5175000000000005,-0.3762057877813505,0.057293189125986556,-0.14674071908798597
1745335318.2377255,1.303875,0.08601,0.211182,-11.838750000000001,21.14,2.9925,-0.3751826951183864,0.05627009646302251,-0.14805612394036832
1745335318.2410588,1.259711,0.103578,0.22204,-10.47375,21.446250000000003,2.5200000000000005,-0.3751826951183864,0.05627009646302251,-0.14805612394036832
1745335318.2443354,1.187975,0.075213,0.263642,-10.176250000000001,18.935000000000002,1.9075000000000002,-0.37635194387605964,0.05846243788365975,-0.1547793042969892
1745335318.2475824,1.145397,0.079971,0.299815,-9.773750000000001,14.385000000000002,1.7675,-0.37635194387605964,0.05846243788365975,-0.1547793042969892
1745335318.2506118,1.148874,0.117181,0.252967,-9.030000000000001,11.24375,2.4675000000000002,-0.37883659748611515,0.057147033031277404,-0.15390236772873428
1745335318.2538545,1.161562,0.112667,0.259921,-10.123750000000001,8.0675,3.7100000000000004,-0.37883659748611515,0.057147033031277404,-0.15390236772873428
1745335318.257121,1.1749209999999999,0.105103,0.223077,-10.228750000000002,6.728750000000001,4.0687500000000005,-0.3729903536977492,0.05480853551593101,-0.150686933645133
1745335318.264267,1.174555,0.083692,0.291397,-9.49375,6.39625,4.26125,-0.3709441683718211,0.05641625255773166,-0.1509792458345513
1745335318.2679152,1.1375279999999999,0.08479,0.180743,-9.467500000000001,0.8225000000000001,4.130000000000001,-0.37196726103478517,0.05524700380005846,-0.14966384098216895
1745335318.2713423,1.131916,0.059597,0.268278,-9.7125,-2.66,4.0512500000000005,-0.37196726103478517,0.05524700380005846,-0.14966384098216895
1745335318.2748687,1.098427,0.069235,0.185501,-9.765,-5.53875,2.5812500000000003,-0.3729903536977492,0.051739257527038875,-0.15024846536100556
1745335318.278228,1.080249,0.06039,0.204472,-9.633750000000001,-7.428750000000001,4.348750000000001,-0.3729903536977492,0.051739257527038875,-0.15024846536100556
1745335318.281758,1.076162,0.045628,0.240767,-9.44125,-12.451250000000002,4.296250000000001,-0.3691902952353113,0.05276235019000292,-0.1486407483192049
1745335318.28515,1.074149,0.065636,0.159027,-9.738750000000001,-11.252500000000001,5.180000000000001,-0.3691902952353113,0.05276235019000292,-0.1486407483192049
1745335318.288539,1.0888499999999999,0.039894,0.20014099999999999,-9.58125,-13.457500000000001,4.103750000000001,-0.3725518854136218,0.054370067231803564,-0.14527915814089448
1745335318.2917082,1.055361,0.040199,0.164456,-10.36875,-15.680000000000001,4.322500000000001,-0.3725518854136218,0.05700087693656825,-0.14294066062554808
1745335318.2951944,0.99674,0.038551999999999996,0.12456199999999999,-9.415000000000001,-16.520000000000003,4.8475,-0.3724057293189126,0.05700087693656825,-0.14294066062554808
1745335318.3011062,0.986126,0.012931999999999999,0.296277,-8.627500000000001,-22.645000000000003,4.43625,-0.3731365097924583,0.0586085939783689,-0.14527915814089448
1745335318.3049703,1.01199,0.03721,0.14804699999999998,-10.561250000000001,-20.58875,6.072500000000001,-0.3772288804443145,0.057293189125986556,-0.14308681672025725
1745335318.3082178,0.975146,0.023241,0.13359,-12.005,-19.363750000000003,7.402500000000001,-0.3772288804443145,0.057293189125986556,-0.14308681672025725
1745335318.3116753,0.944524,0.022448,0.211182,-10.176250000000001,-22.5925,7.017500000000001,-0.37342882198187666,0.05583162817889506,-0.1483484361297866
1745335318.3150566,1.010465,-0.001647,0.096319,-10.342500000000001,-21.673750000000002,10.5525,-0.37342882198187666,0.05583162817889506,-0.1483484361297866
1745335318.321106,0.986614,0.088572,0.345931,-10.0975,-23.712500000000002,11.4975,-0.37854428529669687,0.05568547208418591,-0.14337912890967552
1745335318.3248422,0.984113,0.028243,0.260592,-12.057500000000001,-23.520000000000003,15.872500000000002,-0.38044431452791583,0.06050862320958784,-0.1388482899736919
1745335318.3279405,0.885537,-0.169702,0.178974,-11.760000000000002,-18.970000000000002,12.941250000000002,-0.38044431452791583,0.06050862320958784,-0.1388482899736919
1745335318.331451,0.944585,-0.008113,0.047824,-13.23,-16.992500000000003,12.775,-0.37898275358082434,0.05641625255773166,-0.13680210464776382
1745335318.336675,0.943975,0.013481,0.147925,-12.60875,-22.680000000000003,14.603750000000002,-0.37576731949722303,0.06284712072493423,-0.13811750950014615
1745335318.3404665,0.9813069999999999,0.015738,-0.229177,-13.895000000000001,-14.507500000000002,15.820000000000002,-0.37576731949722303,0.06284712072493423,-0.13811750950014615
1745335318.3437524,0.909449,0.171044,0.1464,-13.422500000000001,-17.85875,17.841250000000002,-0.3756211634025139,0.060947091493715286,-0.1359251680795089
1745335318.3475564,0.888709,-0.112362,0.253943,-12.88,-19.53,15.0675,-0.37547500730780475,0.0589009061677872,-0.13621748026892722
1745335318.35109,1.013942,0.28468699999999997,-0.074725,-15.0675,-18.13875,17.92,-0.37547500730780475,0.0589009061677872,-0.13621748026892722
1745335318.3544252,0.964227,-0.046848,0.231617,-14.787500000000001,-19.696250000000003,18.340000000000003,-0.378690441391406,0.06109324758842444,-0.12730195849166911
1745335318.3576748,0.887245,0.085644,-0.017934,-16.84375,-13.982500000000002,22.26875,-0.378690441391406,0.06109324758842444,-0.12730195849166911
1745335318.3607693,0.9712419999999999,-0.162077,0.216977,-15.68875,-18.165000000000003,16.40625,-0.37737503653902366,0.059923998830751245,-0.13300204618532593
1745335318.3639302,0.88267,0.16591999999999998,0.035868,-17.49125,-11.418750000000001,23.266250000000003,-0.37737503653902366,0.059923998830751245,-0.13300204618532593
1745335318.3680286,1.052921,0.058743,0.239486,-16.625,-15.855000000000002,19.118750000000002,-0.37342882198187666,0.06299327681964338,-0.13037123648056123
1745335318.3776934,0.998143,0.017811999999999998,-0.029036,-19.705000000000002,-10.64,21.218750000000004,-0.3751826951183864,0.06445483776673487,-0.12803273896521486
1745335318.3813026,0.970815,0.121085,0.313601,-20.65875,-16.82625,20.282500000000002,-0.3766442560654779,0.06547793042969892,-0.1308097047646887
1745335318.3848145,1.055727,0.019032,0.043188,-22.242500000000003,-15.4875,19.41625,-0.3778135048231511,0.06357790119847997,-0.1278865828705057
1745335318.3882675,0.930555,-0.054960999999999996,0.124074,-21.97125,-12.083750000000002,20.335,-0.3778135048231511,0.06357790119847997,-0.1278865828705057
1745335318.391667,1.010282,0.0037819999999999998,0.432734,-21.883750000000003,-22.51375,22.63625,-0.374744226834259,0.06693949137679041,-0.12686349020754165
1745335318.3949099,0.990579,0.066063,-0.130235,-24.12375,-7.708750000000001,21.97125,-0.374744226834259,0.06693949137679041,-0.12686349020754165
1745335318.3982036,0.910486,-0.227103,0.599142,-22.925,-24.351250000000004,18.15625,-0.3782519731072786,0.07030108155510084,-0.12657117801812334
1745335318.4019573,0.807152,0.157258,-0.149511,-26.635,-11.138750000000002,25.847500000000004,-0.3782519731072786,0.07030108155510084,-0.12657117801812334
1745335318.4073405,0.832406,-0.183671,0.567117,-26.31125,-22.37375,20.361250000000002,-0.3732826658871675,0.06971645717626425,-0.12657117801812334
1745335318.4111834,0.870165,-0.083143,0.253638,-27.9475,-16.266250000000003,22.023750000000003,-0.3724057293189126,0.0689856767027185,-0.12306343174510377
1745335318.4145741,0.8547319999999999,-0.097173,-0.229604,-29.47875,-8.07625,19.7225,-0.3724057293189126,0.0689856767027185,-0.12306343174510377
1745335318.4179015,0.916403,0.031415,0.449509,-27.0725,-26.27625,19.8625,-0.37342882198187666,0.07366267173341129,-0.12452499269219526
1745335318.4210098,0.876814,-0.053009,-0.216855,-30.870000000000005,-9.467500000000001,16.31875,-0.37342882198187666,0.07366267173341129,-0.12057877813504823
1745335318.424211,0.899811,0.078507,0.376492,-29.286250000000003,-20.8425,18.646250000000002,-0.3764980999707688,0.07337035954399299,-0.12057877813504823
1745335318.431035,0.835395,0.064111,-0.227164,-33.24125,-10.027500000000002,19.223750000000003,-0.3744519146448407,0.07950891552177726,-0.12437883659748611
1745335318.4368925,0.74786,0.11486299999999999,0.105835,-31.736250000000002,-20.01125,15.846250000000001,-0.37430575855013154,0.07775504238526747,-0.11502484653610055
1745335318.4407346,0.891088,-0.054595,0.045384,-33.24125,-20.090000000000003,14.043750000000001,-0.3772288804443145,0.07658579362759427,-0.12116340251388483
1745335318.4439723,0.815021,-0.019642,0.201727,-32.8825,-20.816250000000004,14.043750000000001,-0.3772288804443145,0.07658579362759427,-0.12116340251388483
1745335318.447333,0.901824,-0.069662,-0.111996,-34.685,-14.910000000000002,12.521250000000002,-0.3706518561824028,0.07921660333235896,-0.11926337328266588
1745335318.4506717,0.8492419999999999,-0.062708,0.154879,-32.99625,-17.832500000000003,13.405000000000001,-0.3706518561824028,0.07921660333235896,-0.11926337328266588
1745335318.4540987,0.8069689999999999,-0.124318,0.016165,-34.877500000000005,-15.435000000000002,12.521250000000002,-0.3750365390236773,0.07819351066939491,-0.12057877813504823
1745335318.4574342,0.817583,-0.026413,0.028121,-34.300000000000004,-16.633750000000003,12.13625,-0.3750365390236773,0.07819351066939491,-0.12057877813504823
1745335318.4607754,0.8057489999999999,0.039528,0.12834399999999999,-34.300000000000004,-14.770000000000001,12.215000000000002,-0.3741596024554224,0.07731657410114001,-0.11356328558900906
1745335318.4640386,0.874984,-0.099186,0.075396,-33.0225,-14.735000000000001,10.141250000000001,-0.3741596024554224,0.07731657410114001,-0.11356328558900906
1745335318.4682722,0.8407629999999999,-0.047030999999999996,0.068625,-33.267500000000005,-13.982500000000002,10.718750000000002,-0.37372113417129493,0.07936275942706811,-0.1157556270096463
1745335318.4723606,0.835761,-0.146888,0.104249,-32.34,-10.38625,9.502500000000001,-0.37532885121309556,0.07673194972230342,-0.11429406606255481
1745335318.4762065,0.812825,-0.010919,0.056547,-34.16875,-7.612500000000001,10.360000000000001,-0.37532885121309556,0.07673194972230342,-0.11429406606255481
1745335318.4794896,0.820145,-0.132309,0.034282,-33.626250000000006,-6.711250000000001,10.1675,-0.3745980707395498,0.0799473838059047,-0.11049400760011692
1745335318.4920115,0.815692,-0.056059,0.042456,-33.32,-2.6775,7.98,-0.37079801227711195,0.08330897398421515,-0.11531715872551886
1745335318.495281,0.8030039999999999,-0.11468,0.132614,-33.075,0.08750000000000001,9.870000000000001,-0.37079801227711195,0.08535515931014323,-0.11356328558900906
1745335318.4983099,0.840336,-1.173884,-0.14865699999999998,-28.56875,-7.1312500000000005,26.372500000000002,-0.3694826074247296,0.08535515931014323,-0.11356328558900906
1745335318.5029702,0.961665,-0.980148,0.047092,-9.3625,-15.155000000000001,-0.45500000000000007,-0.3712364805612394,0.08447822274188833,-0.11444022215726396
1745335318.5074477,0.785192,0.494832,-0.107848,-18.751250000000002,14.735000000000001,8.72375,-0.3712364805612394,0.08447822274188833,-0.11049400760011692
1745335318.511209,0.370819,0.020374,-0.096563,-19.486250000000002,19.250000000000004,10.946250000000001,-0.36977491961414793,0.08725518854136217,-0.11049400760011692
1745335318.5143313,0.47238399999999997,0.11114199999999999,0.237839,-21.673750000000002,11.471250000000001,19.67,-0.3658287050570009,0.08491669102601579,-0.10976322712657118
1745335318.5175116,1.031449,-0.16006399999999998,-0.042883,-21.805000000000003,7.51625,8.811250000000001,-0.3658287050570009,0.08491669102601579,-0.10976322712657118
1745335318.5205643,0.8361879999999999,-0.12956399999999998,-0.146888,-21.7525,9.87875,-1.9425000000000001,-0.367874890382929,0.08593978368897984,-0.10771704180064309
1745335318.5237377,0.5216109999999999,-0.026595999999999998,-0.073383,-18.637500000000003,13.2825,-4.7075000000000005,-0.367874890382929,0.08593978368897984,-0.10771704180064309
1745335318.526769,0.405894,0.247111,0.159393,-17.001250000000002,1.12,1.1025,-0.36992107570885707,0.08389359836305174,-0.11034785150540778
1745335318.5303113,0.511485,0.447191,0.232227,-16.73,-10.080000000000002,13.51875,-0.36992107570885707,0.08389359836305174,-0.11034785150540778
1745335318.534888,1.161318,0.120414,0.094489,-16.91375,-15.137500000000001,16.51125,-0.36758257819351065,0.08272434960537854,-0.1065477930429699
1745335318.5385761,1.317234,-0.112789,0.078446,-17.71,-18.22625,5.95875,-0.3709441683718211,0.08783981292019877,-0.1065477930429699
1745335318.5418286,0.928847,-0.177205,-0.467809,-18.90875,7.367500000000001,-0.9712500000000001,-0.3709441683718211,0.08783981292019877,-0.1065477930429699
1745335318.5480988,1.020713,0.43011099999999997,-0.06344,-18.340000000000003,2.0387500000000003,-10.946250000000001,-0.3669979538146741,0.08491669102601579,-0.10304004676995031
1745335318.5512571,0.9304939999999999,0.154635,0.136823,-18.777500000000003,-5.451250000000001,-12.127500000000001,-0.3643671441099094,0.08506284712072494,-0.10216311020169541
1745335318.5548363,0.785863,0.261446,-0.29853399999999997,-21.341250000000002,8.3475,-7.06125,-0.3643671441099094,0.08506284712072494,-0.10216311020169541
1745335318.558222,0.711016,0.010065,0.013054,-19.512500000000003,3.5787500000000003,-6.956250000000001,-0.36407483192049106,0.083162817889506,-0.1045016077170418
1745335318.5614378,0.624823,0.20069,-0.218502,-19.7575,7.008750000000001,-4.655,-0.36407483192049106,0.083162817889506,-0.1045016077170418
1745335318.5654345,0.705282,0.081069,-0.080886,-20.527500000000003,4.41,-0.28,-0.367874890382929,0.08389359836305174,-0.10201695410698626
1745335318.5704741,0.781471,0.074664,-0.225761,-20.7375,5.477500000000001,1.0850000000000002,-0.3653902367728734,0.08418591055247004,-0.1039169833382052
1745335318.574041,0.761463,0.11577799999999999,-0.38308,-21.446250000000003,14.945000000000002,-2.02125,-0.3653902367728734,0.08418591055247004,-0.1039169833382052
1745335318.577409,0.42706099999999997,-0.034404,-0.156892,-20.7725,19.50375,-0.21875000000000003,-0.3648056123940368,0.08433206664717918,-0.10581701256942415
1745335318.5805798,0.637694,-0.197457,-0.132919,-18.392500000000002,19.267500000000002,-7.726250000000001,-0.3648056123940368,0.08433206664717918,-0.10581701256942415
1745335318.584167,0.786656,-0.003904,-0.145912,-17.797500000000003,12.696250000000001,-15.618750000000002,-0.3706518561824028,0.0828705057000877,-0.10874013446360713
1745335318.5873334,0.7336469999999999,-0.045994,-0.114741,-17.49125,0.35000000000000003,-14.37625,-0.3706518561824028,0.0828705057000877,-0.10874013446360713
1745335318.590704,0.722789,-0.072224,-0.112667,-15.443750000000001,-2.33625,-17.150000000000002,-0.36597486115171,0.08740134463607133,-0.1068401052323882
1745335318.5937672,0.8060539999999999,0.015982,-0.05124,-14.708750000000002,-15.28625,-17.395000000000003,-0.36597486115171,0.08740134463607133,-0.10771704180064309
1745335318.600832,0.87535,0.046055,-0.199104,-14.980000000000002,-14.402500000000002,-15.732500000000002,-0.36363636363636365,0.08374744226834259,-0.09792458345513008
1745335318.6059341,0.930372,0.068808,-0.174948,-14.166250000000002,-4.2525,-12.18875,-0.36363636363636365,0.08374744226834259,-0.09792458345513008
1745335318.6095042,0.989725,0.178425,-0.101565,-14.901250000000001,-8.12875,-4.87375,-0.3639286758257819,0.08374744226834259,-0.102747734580532
1745335318.6127799,1.013698,0.103395,-0.337696,-12.4425,0.8400000000000001,-0.63875,-0.3665594855305466,0.08535515931014323,-0.10727857351651564
1745335318.615967,1.014857,0.122915,-0.296216,-13.7025,16.275000000000002,2.9400000000000004,-0.3665594855305466,0.08535515931014323,-0.10727857351651564
1745335318.619334,0.996679,0.074237,-0.201117,-15.9075,21.83125,6.501250000000001,-0.36261327097339957,0.08477053493130664,-0.1068401052323882
1745335318.622464,0.978928,0.006771,-0.066978,-15.9075,13.93875,3.6312500000000005,-0.36261327097339957,0.08477053493130664,-0.1068401052323882
1745335318.6256833,0.9098149999999999,0.000488,-0.09698999999999999,-14.026250000000001,2.8175000000000003,3.325,-0.3639286758257819,0.08681672025723473,-0.10318620286465946
1745335318.6287913,1.099586,-0.42523099999999997,-0.390766,-5.398750000000001,-29.207500000000003,7.5600000000000005,-0.3639286758257819,0.08681672025723473,-0.10318620286465946
1745335318.6319342,0.576023,-0.03477,-0.608658,-0.18375000000000002,2.4325,2.4675000000000002,-0.3592516807950892,0.08827828120432622,-0.10464776381175095
1745335318.6351573,1.03883,0.114192,0.353983,-0.37625000000000003,-0.07875000000000001,-4.655,-0.3592516807950892,0.08827828120432622,-0.10464776381175095
1745335318.6404169,0.930982,0.46299,-0.470493,-1.00625,-11.418750000000001,2.24,-0.3612978661210172,0.08535515931014323,-0.10698626132709733
1745335318.64395,0.692838,-0.036478,-0.196847,1.1725,-6.6325,0.14,-0.3611517100263081,0.08520900321543408,-0.10581701256942415
1745335318.6474664,0.690093,0.061121999999999996,-0.051972,1.995,-8.05,5.1537500000000005,-0.3611517100263081,0.08520900321543408,-0.10581701256942415
1745335318.650696,0.751642,0.020679,-0.255773,4.996250000000001,-13.23,3.6312500000000005,-0.3618824904998538,0.08535515931014323,-0.10157848582285882
1745335318.6568456,1.076284,0.088084,-0.165371,6.85125,-12.59125,1.9425000000000001,-0.36261327097339957,0.08696287635194387,-0.10157848582285882
1745335318.6601796,1.0815299999999999,0.0028669999999999998,-0.187636,8.627500000000001,-8.295,3.6050000000000004,-0.36261327097339957,0.08696287635194387,-0.10157848582285882
1745335318.6634278,0.862296,-0.023119,-0.158356,9.467500000000001,-7.5425,1.8550000000000002,-0.36509792458345514,0.08608593978368898,-0.10011692487576732
1745335318.6667314,0.906277,-0.026718,-0.140788,9.58125,-8.8025,0.6125,-0.36509792458345514,0.08608593978368898,-0.10011692487576732
1745335318.6699598,0.87596,0.080154,-0.188673,12.696250000000001,-8.12875,-1.3037500000000002,-0.3639286758257819,0.08886290558316282,-0.10406313943291436
1745335318.6753073,1.011868,-0.043981,-0.133773,12.748750000000001,-14.936250000000001,0.35875,-0.3664133294358375,0.08520900321543408,-0.1039169833382052
1745335318.6788158,0.952759,0.081374,-0.105164,13.510000000000002,-13.090000000000002,-0.9450000000000001,-0.3664133294358375,0.08520900321543408,-0.1039169833382052
1745335318.6825547,0.969595,0.055876,-0.07808,12.55625,-15.96,-2.0475000000000003,-0.3683133586670564,0.08301666179479684,-0.10435545162233265
1745335318.685711,1.012234,0.033062,-0.009577,14.000000000000002,-23.292500000000004,-1.05,-0.3683133586670564,0.08301666179479684,-0.10435545162233265
1745335318.6891055,1.098183,0.035746,-0.09881999999999999,15.452500000000002,-19.661250000000003,-2.8000000000000003,-0.3648056123940368,0.08184741303712365,-0.10157848582285882
1745335318.6923473,1.108431,0.062708,-0.021289,15.015,-21.708750000000002,-4.121250000000001,-0.3648056123940368,0.08184741303712365,-0.10157848582285882
1745335318.695535,1.135149,0.014701,-0.064721,16.5725,-22.181250000000002,-2.87875,-0.3653902367728734,0.08126278865828705,-0.10157848582285882
1745335318.6986465,1.143445,0.056852,-0.022203999999999998,16.047500000000003,-25.383750000000003,-3.3775000000000004,-0.3653902367728734,0.08126278865828705,-0.10610932475884244
1745335318.7017806,1.1329529999999999,0.10113799999999999,-0.04331,16.87,-24.465000000000003,-1.6362500000000002,-0.36261327097339957,0.07892429114294067,-0.10610932475884244
1745335318.7048798,1.143811,0.082228,-0.054168,16.87,-24.99875,-0.5775,-0.36261327097339957,0.08097047646886875,-0.09923998830751242
1745335318.7116945,1.210362,0.093269,-0.042273,17.63125,-26.302500000000002,1.715,-0.3623209587839813,0.07863197895352236,-0.09514761765565624
1745335318.7151456,1.22488,0.055998,-0.034526,16.922500000000003,-25.55,2.6075000000000004,-0.3623209587839813,0.07863197895352236,-0.09514761765565624
1745335318.7185419,1.18889,0.055632,-0.003355,17.902500000000003,-25.742500000000003,2.8000000000000003,-0.36670564162525576,0.07775504238526747,-0.09602455422391114
1745335318.721845,1.172969,0.047275,-0.01647,17.990000000000002,-25.462500000000002,3.4650000000000003,-0.36670564162525576,0.07775504238526747,-0.09602455422391114
1745335318.7251308,1.194441,0.042638999999999996,0.004026,17.955000000000002,-26.215000000000003,3.7362500000000005,-0.37021338789827535,0.07819351066939491,-0.09500146156094709
1745335318.728382,1.236287,0.008662,-0.016836,20.0375,-25.156250000000004,3.1587500000000004,-0.37021338789827535,0.07819351066939491,-0.09500146156094709
1745335318.7314565,1.199443,0.061183,-0.001464,18.235000000000003,-23.94,3.9637500000000006,-0.36977491961414793,0.08155510084770536,-0.09967845659163987
1745335318.7346427,1.197613,0.04453,0.0073809999999999995,18.532500000000002,-26.731250000000003,4.20875,-0.36977491961414793,0.08155510084770536,-0.09967845659163987
1745335318.737698,1.222257,0.040748,0.012993,18.751250000000002,-24.49125,3.5175000000000005,-0.367874890382929,0.0811166325635779,-0.09836305173925752
1745335318.7409172,1.245254,0.034099,-0.043981,20.475,-22.207500000000003,3.8237500000000004,-0.367874890382929,0.0811166325635779,-0.09836305173925752
1745335318.7461,1.274839,0.060756,0.008539999999999999,20.142500000000002,-20.282500000000002,3.1325000000000003,-0.3634902075416545,0.0817012569424145,-0.09675533469745688
1745335318.74982,1.236592,0.106201,-0.015616,19.53875,-17.298750000000002,2.9400000000000004,-0.36509792458345514,0.08038585209003216,-0.09485530546623794
1745335318.753572,1.168089,0.115107,-0.031781,21.892500000000002,-11.71625,3.7187500000000004,-0.36509792458345514,0.08038585209003216,-0.09485530546623794
1745335318.7569358,1.313879,0.086071,0.099979,20.335,-15.146250000000002,2.66,-0.36246711487869043,0.07980122771119556,-0.09573224203449283
1745335318.7636442,1.350662,0.180011,-0.091561,19.731250000000003,-3.9725000000000006,5.075,-0.36670564162525576,0.07746273019584916,-0.10070154925460392
1745335318.7669566,1.403793,0.10345599999999999,-0.032574,18.672500000000003,-1.5225000000000002,3.99,-0.3637825197310728,0.07833966676410406,-0.0944168371821105
1745335318.7703497,1.247633,0.15512299999999998,-0.048007,17.578750000000003,5.1625000000000005,6.23,-0.3637825197310728,0.07833966676410406,-0.0944168371821105
1745335318.7736597,1.283074,0.108397,0.12425699999999999,18.06875,2.54625,5.1275,-0.3639286758257819,0.08097047646886875,-0.09587839812920199
1745335318.7769828,1.270691,0.165493,0.021167,17.0625,4.445,7.866250000000001,-0.3639286758257819,0.08097047646886875,-0.09587839812920199
1745335318.7824886,1.315282,0.17086099999999999,0.047397,16.87,11.611250000000002,9.170000000000002,-0.3643671441099094,0.08053200818474131,-0.09602455422391114
1745335318.7860396,1.483215,0.085339,0.081191,17.0275,6.781250000000001,5.906250000000001,-0.3664133294358375,0.0808243203741596,-0.10318620286465946
1745335318.7895696,1.360117,0.18849,-0.096624,17.605,19.94125,7.927500000000001,-0.3664133294358375,0.0808243203741596,-0.10318620286465946
1745335318.7928703,1.368169,0.087413,0.165798,18.2875,15.146250000000002,7.28875,-0.35983630517392573,0.083162817889506,-0.10187079801227711
1745335318.796148,1.35115,0.11516799999999999,0.07972699999999999,19.6,9.14375,7.455000000000001,-0.35983630517392573,0.083162817889506,-0.10187079801227711
1745335318.7993994,1.329434,0.099186,0.05063,19.1625,10.35125,7.09625,-0.3631978953522362,0.08155510084770536,-0.10523238819058754
1745335318.8024383,1.2361039999999999,0.138287,-0.003843,19.38125,12.8625,8.4525,-0.3631978953522362,0.08155510084770536,-0.10523238819058754
1745335318.805639,1.232078,0.163114,0.194468,22.382500000000004,8.98625,8.925,-0.36275942706810876,0.07936275942706811,-0.10011692487576732
1745335318.8086839,1.356396,0.137677,0.166652,20.720000000000002,3.2637500000000004,8.863750000000001,-0.36275942706810876,0.07936275942706811,-0.10011692487576732
1745335318.811871,1.3812229999999999,0.157197,0.073749,20.475,4.15625,9.05625,-0.36246711487869043,0.08213972522654195,-0.10377082724349605
1745335318.819411,1.273253,0.144143,0.134688,20.387500000000003,1.2600000000000002,8.67125,-0.36451330020461853,0.080239695995323,-0.10610932475884244
1745335318.8230174,1.122522,0.175558,0.095831,20.090000000000003,2.0650000000000004,8.592500000000001,-0.36159017831043555,0.0790704472376498,-0.10552470038000585
1745335318.8262768,1.0273619999999999,0.12425699999999999,0.061305,20.85125,0.14875000000000002,8.557500000000001,-0.36159017831043555,0.0790704472376498,-0.10552470038000585
1745335318.829586,0.5471699999999999,0.180377,-0.163236,20.063750000000002,5.3025,10.360000000000001,-0.3582285881321251,0.08038585209003216,-0.1065477930429699
1745335318.8329246,0.069052,0.108092,0.011163,21.53375,0.08750000000000001,12.215000000000002,-0.3582285881321251,0.08038585209003216,-0.1065477930429699
1745335318.8360643,0.529846,0.033854999999999996,0.251686,21.778750000000002,-14.953750000000001,9.05625,-0.3599824612686349,0.08257819351066939,-0.1036246711487869
1745335318.839215,1.735084,0.190625,0.10492,22.820000000000004,-20.7025,-2.07375,-0.3599824612686349,0.08257819351066939,-0.1036246711487869
1745335318.8423655,1.99775,0.281515,-0.127246,21.481250000000003,-2.4762500000000003,-1.1375000000000002,-0.3655363928675826,0.0822858813212511,-0.10581701256942415
1745335318.8454201,1.97091,0.298656,-0.150182,17.0625,11.71625,3.5175000000000005,-0.3655363928675826,0.0822858813212511,-0.10581701256942415
1745335318.848945,0.724375,-0.01952,0.383751,18.725,8.846250000000001,3.6312500000000005,-0.3652440806781643,0.08038585209003216,-0.1059631686641333
1745335318.8540819,0.291092,0.341356,0.264862,19.67875,-25.200000000000003,10.1675,-0.36568254896229174,0.08301666179479684,-0.10377082724349605
1745335318.858304,1.222806,0.001769,-0.354593,19.8975,-36.566250000000004,2.4937500000000004,-0.36568254896229174,0.08301666179479684,-0.10377082724349605
1745335318.8617842,1.8281699999999999,0.414251,0.0006709999999999999,14.271250000000002,-20.282500000000002,13.597500000000002,-0.36568254896229174,0.08053200818474131,-0.10114001753873136
1745335318.8651943,1.976766,0.254919,0.013481,13.728750000000002,-15.627500000000001,15.566250000000002,-0.36568254896229174,0.08053200818474131,-0.09836305173925752
1745335318.8716705,1.626931,0.17946199999999998,0.472872,11.217500000000001,-14.980000000000002,4.0425,-0.367874890382929,0.08740134463607133,-0.10464776381175095
1745335318.8751864,0.863821,0.124989,0.045018,12.55625,-12.302500000000002,1.5837500000000002,-0.367874890382929,0.08740134463607133,-0.10464776381175095
1745335318.8782742,0.884317,0.196786,0.005246,12.967500000000001,-12.363750000000001,7.595000000000001,-0.36261327097339957,0.0822858813212511,-0.09967845659163987
1745335318.8814235,1.250134,0.091683,0.22356499999999999,13.343750000000002,-7.385000000000001,3.9287500000000004,-0.36261327097339957,0.0822858813212511,-0.09967845659163987
1745335318.884899,1.241411,0.149206,-0.012199999999999999,11.655000000000001,-2.0825,7.201250000000001,-0.36670564162525576,0.08330897398421515,-0.09909383221280327
1745335318.8900287,0.958005,0.110288,0.278648,13.160000000000002,0.6212500000000001,10.080000000000002,-0.36670564162525576,0.0828705057000877,-0.1065477930429699
1745335318.8935914,0.857416,0.14158099999999998,0.17873,14.770000000000001,-2.0825,11.217500000000001,-0.3617363344051447,0.0828705057000877,-0.1065477930429699
1745335318.896861,0.961726,0.138958,0.08973099999999999,16.10875,-2.10875,12.276250000000001,-0.3637825197310728,0.08623209587839813,-0.09850920783396667
1745335318.9000545,1.143994,0.10699399999999999,0.134688,16.73,-1.0237500000000002,9.887500000000001,-0.3637825197310728,0.08623209587839813,-0.09850920783396667
1745335318.9034245,1.297775,0.184037,0.08790099999999999,17.115000000000002,2.5987500000000003,9.808750000000002,-0.3648056123940368,0.0828705057000877,-0.09894767611809413
1745335318.9065878,1.18035,0.149572,0.035563,17.771250000000002,9.485000000000001,10.6925,-0.3648056123940368,0.0828705057000877,-0.09894767611809413
1745335318.9097564,1.084031,0.084302,0.197701,18.1475,13.107500000000002,10.718750000000002,-0.362028646594563,0.08374744226834259,-0.10903244665302543
1745335318.9128628,1.069452,0.012078,0.215391,20.965000000000003,9.117500000000001,7.95375,-0.362028646594563,0.08374744226834259,-0.10903244665302543
1745335318.9159522,1.1219729999999999,0.172325,0.224724,22.653750000000002,8.155000000000001,9.336250000000001,-0.36275942706810876,0.08462437883659749,-0.10771704180064309
1745335318.9192173,1.124352,0.18531799999999998,0.094428,21.726250000000004,14.113750000000001,10.027500000000002,-0.36275942706810876,0.08462437883659749,-0.10771704180064309
1745335318.9266238,1.038525,0.12688,0.212585,22.356250000000003,13.72,11.690000000000001,-0.35779011984799763,0.08330897398421515,-0.10698626132709733
1745335318.930155,1.067256,0.116876,0.125294,23.773750000000003,17.01,10.43875,-0.3592516807950892,0.08301666179479684,-0.1039169833382052
1745335318.9334104,1.05713,0.097112,0.1891,24.211250000000003,18.427500000000002,9.2225,-0.3634902075416545,0.08550131540485238,-0.10523238819058754
1745335318.936812,1.04371,0.098271,0.113704,24.946250000000003,18.90875,10.307500000000001,-0.3634902075416545,0.08550131540485238,-0.10523238819058754
1745335318.9400058,1.022665,0.11992599999999999,0.110898,25.33125,21.525000000000002,10.193750000000001,-0.3602747734580532,0.0822858813212511,-0.1045016077170418
1745335318.9432185,1.006561,0.143655,0.117852,24.841250000000002,21.35875,9.2575,-0.3602747734580532,0.0822858813212511,-0.1045016077170418
1745335318.9463127,0.9675819999999999,0.112972,0.143167,25.57625,23.625000000000004,11.086250000000001,-0.35749780765857936,0.08403975445776089,-0.1169248757673195
1745335318.949446,0.96929,0.102602,0.09265899999999999,25.086250000000003,23.450000000000003,10.22,-0.35749780765857936,0.08403975445776089,-0.1169248757673195
1745335318.9524944,1.00162,0.122366,0.159332,24.648750000000003,23.205000000000002,9.756250000000001,-0.3599824612686349,0.08973984215141771,-0.11341712949429991
1745335318.9561508,1.053104,0.118462,0.096075,25.2525,25.173750000000002,9.00375,-0.3599824612686349,0.08973984215141771,-0.11341712949429991
1745335318.9611855,0.975695,0.120902,0.101504,24.071250000000003,28.070000000000004,9.835,-0.3567670271850336,0.08667056416252558,-0.11107863197895353
1745335318.9647486,0.915732,0.076311,0.102236,24.106250000000003,27.431250000000002,8.61875,-0.35589009061677873,0.08637825197310728,-0.10947091493715289
1745335318.9679952,0.887489,0.089304,0.115229,24.211250000000003,28.840000000000003,7.840000000000001,-0.35589009061677873,0.08637825197310728,-0.10947091493715289
1745335318.9711952,0.903288,0.085644,0.072102,23.14375,28.017500000000002,7.5075,-0.3539900613855598,0.08783981292019877,-0.11312481730488161
1745335318.9745047,0.938912,0.082411,0.113277,22.680000000000003,27.405,7.0875,-0.3539900613855598,0.08783981292019877,-0.11312481730488161
1745335318.9805872,0.960262,0.082533,0.084302,22.058750000000003,29.023750000000003,6.8425,-0.3547208418591055,0.08944752996199941,-0.11838643671441099
1745335318.9839506,0.8876109999999999,0.087413,0.08558299999999999,19.871250000000003,29.942500000000003,6.982500000000001,-0.3573516515638702,0.08681672025723473,-0.11882490499853844
1745335318.9871268,0.818193,0.086742,0.089548,21.945000000000004,28.017500000000002,6.65,-0.3573516515638702,0.08681672025723473,-0.11882490499853844
1745335318.990769,0.805688,0.0793,0.058316,20.308750000000003,28.46375,6.86875,-0.3555977784273604,0.08725518854136217,-0.11926337328266588
1745335318.9958224,0.847229,0.075213,0.099491,17.902500000000003,26.687500000000004,7.393750000000001,-0.35501315404852385,0.08813212510961707,-0.12116340251388483
1745335318.9993985,0.827709,0.074664,0.075579,16.87,26.24125,7.5425,-0.35501315404852385,0.08813212510961707,-0.12116340251388483
1745335319.0028203,0.804102,0.068503,0.100711,17.115000000000002,25.90875,7.53375,-0.35442852966968724,0.08667056416252558,-0.12057877813504823
1745335319.00609,0.798124,0.065758,0.109373,15.9075,22.470000000000002,6.6762500000000005,-0.35442852966968724,0.08667056416252558,-0.12057877813504823
1745335319.009457,0.782508,0.050873999999999996,0.077836,15.172500000000001,24.062500000000004,6.291250000000001,-0.3557439345220696,0.08857059339374451,-0.12715580239695995
1745335319.0126019,0.7795799999999999,0.058987,0.085766,11.4625,23.843750000000004,6.343750000000001,-0.3557439345220696,0.08857059339374451,-0.12715580239695995
1745335319.0157492,0.764635,0.048068,0.107238,12.15375,23.75625,8.72375,-0.35808243203741597,0.08871674948845366,-0.12832505115463314
1745335319.0189638,0.7585959999999999,0.056669,0.093818,11.628750000000002,22.67125,6.43125,-0.35808243203741597,0.08871674948845366,-0.12832505115463314
1745335319.0219877,0.76677,0.050263999999999996,0.10919,10.815000000000001,21.97125,6.536250000000001,-0.3547208418591055,0.08900906167787197,-0.1305173925752704
1745335319.0252707,0.767929,0.042029,0.08649799999999999,8.51375,22.312500000000004,6.343750000000001,-0.3547208418591055,0.08900906167787197,-0.1305173925752704
1745335319.0339792,0.724863,0.037149,0.055632,6.335000000000001,22.33875,5.76625,-0.3566208710903245,0.08725518854136217,-0.1302250803858521
1745335319.0373456,0.749995,0.015799,0.09204899999999999,4.6375,19.521250000000002,5.407500000000001,-0.3566208710903245,0.08725518854136217,-0.1302250803858521
1745335319.0406716,0.794952,0.041236,0.055570999999999995,4.095000000000001,20.580000000000002,4.961250000000001,-0.35501315404852385,0.08652440806781643,-0.13621748026892722
1745335319.043979,0.822036,0.037087999999999996,0.070577,3.2987500000000005,21.446250000000003,4.795000000000001,-0.35501315404852385,0.08725518854136217,-0.13621748026892722
1745335319.0471692,0.804102,0.0427,0.065819,2.5112500000000004,22.5575,4.130000000000001,-0.3531131248173049,0.08725518854136217,-0.13621748026892722
1745335319.0501478,0.7899499999999999,0.040382,0.079605,1.9687500000000002,21.13125,4.322500000000001,-0.3531131248173049,0.08886290558316282,-0.1417714118678749
1745335319.0533466,0.799893,0.041784999999999996,0.05246,0.6825000000000001,21.14,4.322500000000001,-0.35384390529085064,0.08886290558316282,-0.1417714118678749
1745335319.0564709,0.816607,0.04636,0.068198,0.385,21.551250000000003,4.541250000000001,-0.34770534931306635,0.09178602747734581,-0.13636363636363635
1745335319.0595238,0.825147,0.034648,0.071187,0.08750000000000001,20.965000000000003,4.515000000000001,-0.34770534931306635,0.09178602747734581,-0.13636363636363635
1745335319.064627,0.808555,0.054839,0.044164,-1.225,21.997500000000002,4.7075000000000005,-0.3504823151125402,0.08740134463607133,-0.14074831920491085
1745335319.0686216,0.810202,0.043248999999999996,0.075457,-0.9012500000000001,20.641250000000003,4.7075000000000005,-0.3504823151125402,0.08740134463607133,-0.14074831920491085
1745335319.0725088,0.822646,0.041358,0.053619,-1.5837500000000002,19.88875,3.77125,-0.3536977491961415,0.08871674948845366,-0.1420637240572932
1745335319.0760527,0.824232,0.056486,0.057888999999999996,-2.8087500000000003,20.527500000000003,3.2375000000000003,-0.3526746565331774,0.08842443729903537,-0.14805612394036832
1745335319.079391,0.805505,0.066185,0.065819,-2.5375,19.302500000000002,2.8875,-0.3526746565331774,0.08842443729903537,-0.14805612394036832
1745335319.082837,0.798917,0.06770999999999999,0.063867,-2.4325,18.69,2.3887500000000004,-0.3498976907337036,0.09222449576147325,-0.1483484361297866
1745335319.0888717,0.800625,0.076616,0.059475,-4.01625,18.497500000000002,1.7500000000000002,-0.35150540777550426,0.092955276235019,-0.14440222157263957
1745335319.092178,0.804041,0.085644,0.058377,-3.99,17.49125,1.6362500000000002,-0.35150540777550426,0.092955276235019,-0.14440222157263957
1745335319.0952363,0.812703,0.104493,0.061975999999999996,-4.6375,17.1325,0.9187500000000001,-0.35150540777550426,0.09339374451914645,-0.14484068985676704
1745335319.1007338,0.805322,0.08784,0.053436,-4.47125,17.01875,0.77875,-0.35282081262788656,0.09193218357205496,-0.14732534346682258
1745335319.104517,0.792207,0.102236,0.059352999999999996,-4.69875,15.96,-0.385,-0.35282081262788656,0.09193218357205496,-0.14732534346682258
1745335319.1079462,0.799405,0.101565,0.056242,-5.460000000000001,16.126250000000002,-0.55125,-0.3479976615024847,0.09061677871967261,-0.14674071908798597
1745335319.1114483,0.813618,0.10699399999999999,0.048434,-4.585000000000001,15.426250000000001,-0.88375,-0.3479976615024847,0.09061677871967261,-0.14674071908798597
1745335319.1148791,0.819108,0.107787,0.058987,-6.65875,15.70625,-1.11125,-0.34770534931306635,0.09456299327681965,-0.14966384098216895
1745335319.1181867,0.837164,0.108885,0.085217,-6.492500000000001,15.312500000000002,-1.26875,-0.35179771996492254,0.09631686641332944,-0.14878690441391407
1745335319.1215038,0.853695,0.099674,0.069357,-7.691250000000001,14.6475,-2.54625,-0.35179771996492254,0.09631686641332944,-0.14878690441391407
1745335319.1246736,0.8401529999999999,0.100772,0.069174,-8.4875,15.443750000000001,-3.0975,-0.34828997369190295,0.09368605670856475,-0.15521777258111663
1745335319.127683,0.831491,0.096014,0.095221,-8.811250000000001,13.413750000000002,-2.8525000000000005,-0.34828997369190295,0.09368605670856475,-0.15521777258111663
1745335319.1309516,0.837835,0.099552,0.091683,-8.925,12.801250000000001,-3.3775000000000004,-0.3466822566501023,0.0920783396667641,-0.1581408944752996
1745335319.136625,0.861076,0.087535,0.115961,-11.270000000000001,13.186250000000001,-4.15625,-0.3466822566501023,0.09105524700380006,-0.15258696287635196
1745335319.1431806,0.884134,0.089182,0.11406999999999999,-13.396250000000002,15.172500000000001,-4.62875,-0.34317451037708274,0.092955276235019,-0.1547793042969892
1745335319.146343,0.8812059999999999,0.070272,0.137494,-14.052500000000002,13.457500000000001,-4.296250000000001,-0.34317451037708274,0.092955276235019,-0.1547793042969892
1745335319.1495786,0.864736,0.06283,0.109739,-14.708750000000002,15.120000000000001,-4.01625,-0.34565916398713825,0.09368605670856475,-0.15536392867582577
1745335319.152776,0.831369,0.07869,0.105469,-15.715000000000002,16.2575,-3.6837500000000003,-0.34565916398713825,0.09368605670856475,-0.15536392867582577
1745335319.155922,0.8100189999999999,0.067161,0.10187,-15.776250000000001,16.17,-2.9050000000000002,-0.34522069570301084,0.09339374451914645,-0.15697164571762642
1745335319.159315,0.799222,0.06417199999999999,0.08820599999999999,-16.896250000000002,16.00375,-2.21375,-0.34522069570301084,0.09339374451914645,-0.15697164571762642
1745335319.165073,0.871812,0.057218,0.050386,-16.126250000000002,15.846250000000001,-2.8525000000000005,-0.3475591932183572,0.0941245249926922,-0.16106401636948262
1745335319.1688495,0.952149,0.069113,0.085644,-19.075000000000003,14.315000000000001,-2.54625,-0.35223618824905,0.0932475884244373,-0.15287927506577023
1745335319.1723142,0.988444,0.073749,0.055205,-18.94375,13.168750000000001,-3.6575,-0.35223618824905,0.0932475884244373,-0.15287927506577023
1745335319.1757755,0.948855,0.091378,0.022631,-19.512500000000003,13.44875,-4.655,-0.34828997369190295,0.09836305173925752,-0.15521777258111663
1745335319.1792774,0.8355779999999999,0.102358,0.001464,-19.1275,12.495000000000001,-5.5125,-0.34828997369190295,0.09836305173925752,-0.15521777258111663
1745335319.1826282,0.763964,0.112179,0.041358,-19.188750000000002,10.377500000000001,-6.0375000000000005,-0.34624378836597486,0.09660917860274773,-0.15580239695995324
1745335319.1859174,0.793671,0.117181,0.034404,-19.267500000000002,6.055000000000001,-8.776250000000001,-0.34624378836597486,0.09427068108740135,-0.16150248465361006
1745335319.189224,0.896212,0.12895399999999999,0.031293,-19.8625,4.331250000000001,-7.621250000000001,-0.3501900029231219,0.09427068108740135,-0.16150248465361006
1745335319.195631,0.980575,0.141032,0.040809,-20.168750000000003,2.7912500000000002,-9.44125,-0.3479976615024847,0.09617071031862029,-0.16325635779011985
1745335319.202116,0.85583,0.103517,0.06770999999999999,-22.5925,-0.8487500000000001,-10.47375,-0.3520900321543408,0.09631686641332944,-0.15667933352820812
1745335319.2060876,0.8052,0.082533,0.056729999999999996,-22.128750000000004,-3.1675000000000004,-11.71625,-0.35296696872259575,0.09733995907629348,-0.15609470914937154
1745335319.2094843,0.845521,0.11223999999999999,0.055388,-23.24875,-6.606250000000001,-12.0225,-0.35296696872259575,0.09733995907629348,-0.15609470914937154
1745335319.2129676,0.9034099999999999,0.098149,0.057096,-25.13875,-5.73125,-11.576250000000002,-0.34712072493422974,0.0923706518561824,-0.15638702133878982
1745335319.2164283,0.914268,0.088633,0.092171,-25.786250000000003,-4.865,-12.416250000000002,-0.34712072493422974,0.0923706518561824,-0.15638702133878982
1745335319.2197783,0.931226,0.050873999999999996,0.10931199999999999,-27.0725,-6.8775,-12.967500000000001,-0.35092078339666766,0.09397836889798304,-0.15200233849751535
1745335319.2230983,0.934703,0.083509,0.119194,-27.702500000000004,-8.12875,-13.7725,-0.3519438760596317,0.09251680795089155,-0.1533177433498977
1745335319.2263029,0.9638,0.078812,0.127978,-29.636250000000004,-8.8025,-13.7725,-0.3519438760596317,0.09251680795089155,-0.1533177433498977
1745335319.2295468,0.95831,0.075945,0.114619,-27.615000000000002,-10.141250000000001,-14.490000000000002,-0.346389944460684,0.09587839812920199,-0.1495176848874598
1745335319.2336833,0.9597129999999999,0.073322,0.125965,-30.651250000000005,-10.447500000000002,-14.875000000000002,-0.346389944460684,0.09587839812920199,-0.1495176848874598
1745335319.2382464,1.018761,0.061121999999999996,0.147803,-31.281250000000004,-11.558750000000002,-14.568750000000001,-0.34741303712364807,0.0920783396667641,-0.15024846536100556
1745335319.2421005,1.065853,0.043066,0.172203,-33.705000000000005,-12.582500000000001,-15.347500000000002,-0.3506284712072493,0.0912014030985092,-0.15404852382344345
1745335319.2484193,1.110322,0.043127,0.172447,-34.580000000000005,-13.755,-15.347500000000002,-0.3478515054077755,0.09310143232972815,-0.14235603624671148
1745335319.2518096,1.093974,0.046787,0.288713,-34.685,-12.477500000000001,-14.84875,-0.3478515054077755,0.09310143232972815,-0.14235603624671148
1745335319.2551155,1.194929,0.08881599999999999,0.289445,-36.925000000000004,-19.0225,-15.872500000000002,-0.34828997369190295,0.09397836889798304,-0.14615609470914936
1745335319.258293,1.318881,0.106567,0.188002,-37.54625,-22.793750000000003,-16.73,-0.34828997369190295,0.09397836889798304,-0.14615609470914936
1745335319.261529,1.373842,0.18056,0.260836,-39.165000000000006,-21.472500000000004,-12.18875,-0.35033615901783105,0.09339374451914645,-0.1471791873721134
1745335319.2646582,1.265323,0.105225,0.147803,-40.98500000000001,-20.562500000000004,-13.326250000000002,-0.35033615901783105,0.09339374451914645,-0.1471791873721134
1745335319.2688699,1.161806,0.075579,0.183,-41.56250000000001,-18.69875,-14.875000000000002,-0.35092078339666766,0.09339374451914645,-0.14980999707687812
1745335319.2736218,0.985821,0.086681,0.16226,-43.697500000000005,-15.093750000000002,-8.365,-0.3519438760596317,0.09660917860274773,-0.14294066062554808
1745335319.277655,1.009367,0.053924,0.148169,-45.50000000000001,-17.4125,-9.170000000000002,-0.3519438760596317,0.09660917860274773,-0.14294066062554808
1745335319.2810745,1.0793949999999999,0.07618899999999999,0.075579,-45.63125,-15.767500000000002,-6.536250000000001,-0.3535515931014323,0.09280912014030986,-0.1370944168371821
1745335319.2845852,1.113494,0.063135,0.150731,-46.01625000000001,-17.4125,-8.63625,-0.3535515931014323,0.09587839812920199,-0.1391406021631102
1745335319.2880044,1.125816,0.056242,0.125233,-46.23500000000001,-19.27625,-8.61875,-0.35282081262788656,0.09587839812920199,-0.1391406021631102
1745335319.2913175,1.204079,0.114436,0.20166599999999998,-46.313750000000006,-24.823750000000004,-8.592500000000001,-0.3541362174802689,0.09719380298158434,-0.13066354866997953
1745335319.2946258,1.2741069999999999,0.076433,0.095648,-46.751250000000006,-24.911250000000003,-9.248750000000001,-0.3541362174802689,0.09719380298158434,-0.13066354866997953
1745335319.2978842,1.24257,-0.027694,0.100162,-46.89125000000001,-22.04125,-13.238750000000001,-0.3545746857643964,0.09280912014030986,-0.13504823151125403
1745335319.303957,1.197857,0.059352999999999996,0.158173,-48.580000000000005,-23.852500000000003,-13.597500000000002,-0.35852090032154343,0.09602455422391114,-0.1284712072493423
1745335319.3093715,1.205665,0.061,0.138836,-49.94500000000001,-21.008750000000003,-12.941250000000002,-0.35384390529085064,0.09719380298158434,-0.12803273896521486
1745335319.3133109,1.340231,0.03843,0.122488,-50.487500000000004,-20.781250000000004,-12.162500000000001,-0.35384390529085064,0.09719380298158434,-0.12803273896521486
1745335319.3167086,1.423252,0.078568,0.103029,-51.861250000000005,-16.8,-11.66375,-0.3588132125109617,0.09894767611809413,-0.1299327681964338
1745335319.3201866,1.432463,0.060756,0.113948,-52.727500000000006,-12.888750000000002,-11.025,-0.3588132125109617,0.09894767611809413,-0.1299327681964338
1745335319.3236082,1.40056,0.063562,0.111996,-53.96125000000001,-9.686250000000001,-10.115,-0.36100555393159894,0.09631686641332944,-0.1278865828705057
1745335319.3269393,1.417213,0.062586,0.120353,-53.795,-7.901250000000001,-9.388750000000002,-0.36100555393159894,0.09631686641332944,-0.1278865828705057
1745335319.3301196,1.43045,0.060816999999999996,0.102663,-54.68750000000001,-6.510000000000001,-9.975000000000001,-0.3588132125109617,0.09543992984507454,-0.11750950014615609
1745335319.3332071,1.4538739999999999,0.068198,0.088389,-55.755,-2.5900000000000003,-8.758750000000001,-0.3588132125109617,0.09543992984507454,-0.11750950014615609
1745335319.3363743,1.4317309999999999,0.072651,0.099674,-55.370000000000005,0.58625,-8.09375,-0.3593978368897983,0.09500146156094709,-0.13007892429114293
1745335319.3400702,1.396778,0.05856,0.119987,-56.9275,3.1325000000000003,-8.0325,-0.3593978368897983,0.09500146156094709,-0.1275942706810874
1745335319.3450458,1.359019,0.039710999999999996,0.11284999999999999,-56.463750000000005,5.495,-8.23375,-0.35983630517392573,0.09733995907629348,-0.1275942706810874
1745335319.3489113,1.339743,0.020739999999999998,0.123708,-57.365,7.07,-7.621250000000001,-0.3566208710903245,0.09923998830751242,-0.12627886582870507
1745335319.3551958,1.311622,0.012322,0.130052,-56.253750000000004,8.295,-8.478750000000002,-0.35866705641625257,0.09967845659163987,-0.12467114878690441
1745335319.3586633,1.246352,0.0025009999999999998,0.127124,-55.431250000000006,10.605,-9.248750000000001,-0.3582285881321251,0.10011692487576732,-0.12803273896521486
1745335319.3619802,1.1941359999999999,-0.008784,0.139934,-53.74250000000001,10.360000000000001,-9.47625,-0.3582285881321251,0.10011692487576732,-0.12803273896521486
1745335319.3652098,1.12972,-0.009333,0.156648,-52.377500000000005,9.91375,-9.887500000000001,-0.35852090032154343,0.10040923706518562,-0.12774042677579656
1745335319.3684034,1.115141,-0.019764,0.168177,-51.6075,9.852500000000001,-9.91375,-0.35852090032154343,0.10040923706518562,-0.12774042677579656
1745335319.3715634,1.119838,-0.033733,0.178303,-50.1375,8.680000000000001,-10.38625,-0.35808243203741597,0.09865536392867583,-0.12291727565039462
1745335319.3756602,1.124596,-0.043188,0.168543,-48.580000000000005,9.371250000000002,-11.996250000000002,-0.35808243203741597,0.09865536392867583,-0.12291727565039462
1745335319.3805997,1.104039,-0.041846,0.209413,-47.53875000000001,9.625000000000002,-12.0225,-0.3605670856474715,0.10230926629640456,-0.12467114878690441
1745335319.384539,1.0870199999999999,-0.058438,0.136701,-44.40625000000001,10.2725,-12.600000000000001,-0.3602747734580532,0.1053785442852967,-0.12189418298743057
1745335319.3879344,1.034743,0.022021,0.180621,-44.948750000000004,9.065000000000001,-11.4975,-0.3602747734580532,0.1053785442852967,-0.12189418298743057
1745335319.3914073,1.102697,-0.050508,0.209474,-42.21875000000001,5.495,-11.830000000000002,-0.35954399298450745,0.10523238819058754,-0.12437883659748611
1745335319.3948355,1.0949499999999999,0.0015249999999999999,0.222833,-42.51625000000001,5.0575,-10.85875,-0.35954399298450745,0.10523238819058754,-0.12437883659748611
1745335319.39816,1.086776,-0.080764,0.15420799999999998,-41.755,7.708750000000001,-10.526250000000001,-0.36465945629932767,0.09982461268634903,-0.12218649517684887
1745335319.4014685,1.095926,-0.036661,0.16006399999999998,-42.14,5.696250000000001,-10.47375,-0.36465945629932767,0.09982461268634903,-0.12320958783981292
1745335319.404624,1.084641,-0.108336,0.127124,-38.508750000000006,6.116250000000001,-11.4975,-0.36275942706810876,0.10055539315989477,-0.12320958783981292
1745335319.4106302,1.1041,-0.071797,0.13511499999999999,-36.977500000000006,5.3025,-12.302500000000002,-0.36275942706810876,0.10289389067524116,-0.12130955860859398
1745335319.4163187,1.103734,-0.093208,0.206546,-34.90375,2.5987500000000003,-11.690000000000001,-0.362028646594563,0.10377082724349605,-0.11268634902075417
1745335319.42024,1.091534,-0.052886999999999997,0.20782699999999998,-32.751250000000006,2.1,-11.051250000000001,-0.362028646594563,0.10377082724349605,-0.12028646594562993
1745335319.4236355,1.143262,-0.123525,0.122427,-32.830000000000005,4.103750000000001,-12.495000000000001,-0.36465945629932767,0.10377082724349605,-0.12028646594562993
1745335319.427157,1.161074,-0.126575,0.165981,-31.955000000000002,4.38375,-12.766250000000001,-0.36100555393159894,0.10011692487576732,-0.12218649517684887
1745335319.43057,1.1393579999999999,-0.245525,0.153964,-28.271250000000002,3.7975000000000003,-12.302500000000002,-0.36100555393159894,0.10011692487576732,-0.12218649517684887
1745335319.4338882,1.207434,-0.207888,0.127795,-27.536250000000003,5.32875,-14.79625,-0.3593978368897983,0.10245542239111372,-0.1189710610932476
1745335319.437189,1.142469,-0.084729,0.132309,-27.72875,7.840000000000001,-13.352500000000001,-0.3593978368897983,0.10245542239111372,-0.1189710610932476
1745335319.4403837,1.150704,-0.080276,0.15512299999999998,-25.926250000000003,9.765,-13.09875,-0.3629055831628179,0.09982461268634903,-0.12437883659748611
1745335319.4436545,1.068232,-0.08784,0.15359799999999998,-25.952500000000004,10.57,-11.051250000000001,-0.3629055831628179,0.09982461268634903,-0.12437883659748611
1745335319.4479616,1.061156,-0.09589199999999999,0.21612299999999998,-25.655,10.123750000000001,-11.891250000000001,-0.3648056123940368,0.10128617363344052,-0.12277111955568547
1745335319.4521224,1.100745,-0.046726,0.225883,-25.515000000000004,10.15,-11.611250000000002,-0.364951768488746,0.09719380298158434,-0.12934814381759718
1745335319.456099,1.135149,-0.024888,0.21045,-24.26375,12.10125,-10.00125,-0.364951768488746,0.09719380298158434,-0.12934814381759718
1745335319.4624715,1.12057,-0.055876,0.173728,-23.6075,13.107500000000002,-9.00375,-0.36451330020461853,0.09690149079216603,-0.12116340251388483
1745335319.4710522,1.059448,-0.056303,0.161955,-22.820000000000004,13.95625,-10.38625,-0.36612101724641916,0.09865536392867583,-0.12218649517684887
1745335319.4743843,1.048712,-0.015555,0.155062,-23.773750000000003,17.78,-10.5525,-0.36612101724641916,0.09865536392867583,-0.12218649517684887
1745335319.4776106,1.036878,-0.01281,0.186172,-23.336250000000003,16.126250000000002,-10.05375,-0.36992107570885707,0.10084770534931306,-0.11838643671441099
1745335319.4812365,1.018029,-0.023972999999999998,0.177449,-23.5725,17.08875,-9.835,-0.36992107570885707,0.10084770534931306,-0.11838643671441099
1745335319.4870036,0.993324,-0.018666,0.20313,-21.560000000000002,16.117500000000003,-9.6425,-0.3705057000876937,0.10128617363344052,-0.11999415375621163
