Timestamp,Accel X,Accel Y,Accel Z,Gyro X,Gyro Y,Gyro Z,Magneto X,Magneto Y,Magneto Z
1747152059.5113883,0.9983259999999999,0.0030499999999999998,0.127002,-0.07,0.29750000000000004,0.525,-0.4484068985676703,0.0043846828412744815,-0.18050277696579947
1747152059.5161872,0.99674,0.004514,0.125172,-0.10500000000000001,0.15750000000000003,0.6475000000000001,-0.4484068985676703,0.0043846828412744815,-0.18050277696579947
1747152059.5210493,0.997472,0.00244,0.125904,-0.07,0.2625,0.6125,-0.4484068985676703,0.0043846828412744815,-0.18050277696579947
1747152059.5259252,0.999424,0.001586,0.125782,-0.10500000000000001,0.28,0.5950000000000001,-0.4484068985676703,0.0043846828412744815,-0.18050277696579947
1747152059.530792,0.997472,0.002196,0.12566,-0.035,0.22750000000000004,0.5775,-0.4484068985676703,0.0043846828412744815,-0.18050277696579947
1747152059.5356703,0.9964959999999999,0.002196,0.123098,0.035,0.15750000000000003,0.5950000000000001,-0.4484068985676703,0.0043846828412744815,-0.18050277696579947
1747152059.540538,0.998814,0.002074,0.12456199999999999,-0.0175,0.22750000000000004,0.5775,-0.4484068985676703,0.0043846828412744815,-0.18050277696579947
1747152059.5454657,0.998448,0.002074,0.127612,0.0175,0.24500000000000002,0.5775,-0.4484068985676703,0.0043846828412744815,-0.18050277696579947
1747152059.5503132,0.999058,0.000976,0.126026,-0.08750000000000001,0.22750000000000004,0.5425000000000001,-0.4484068985676703,0.0043846828412744815,-0.18050277696579947
1747152059.5551822,0.997594,0.003294,0.127124,-0.052500000000000005,0.28,0.5775,-0.4484068985676703,0.0043846828412744815,-0.18050277696579947
1747152059.560051,0.9964959999999999,0.001586,0.124318,-0.0175,0.14,0.525,-0.44899152294650685,-0.0005846243788365975,-0.1862028646594563
1747152059.5649233,0.998082,0.002562,0.125294,0.0,0.24500000000000002,0.6825000000000001,-0.44899152294650685,-0.0005846243788365975,-0.1862028646594563
1747152059.569795,0.997594,0.001952,0.127246,-0.08750000000000001,0.17500000000000002,0.5950000000000001,-0.44899152294650685,-0.0005846243788365975,-0.1862028646594563
1747152059.5746615,0.997472,0.0026839999999999998,0.12688,-0.035,0.24500000000000002,0.5775,-0.44899152294650685,-0.0005846243788365975,-0.1862028646594563
1747152059.5795395,0.995398,0.003294,0.12456199999999999,-0.052500000000000005,0.21000000000000002,0.5775,-0.44899152294650685,-0.0005846243788365975,-0.1862028646594563
1747152059.5844069,0.998082,0.0034159999999999998,0.123708,-0.052500000000000005,0.22750000000000004,0.5950000000000001,-0.44899152294650685,-0.0005846243788365975,-0.1862028646594563
1747152059.5892775,0.99735,0.000122,0.124684,-0.10500000000000001,0.22750000000000004,0.6300000000000001,-0.44899152294650685,-0.0005846243788365975,-0.1862028646594563
1747152059.5941496,0.9977159999999999,0.0034159999999999998,0.125416,-0.0175,0.1925,0.6125,-0.44899152294650685,-0.0005846243788365975,-0.1862028646594563
1747152059.599022,0.996862,0.0017079999999999999,0.127002,-0.0175,0.14,0.5950000000000001,-0.44899152294650685,-0.0005846243788365975,-0.1862028646594563
1747152059.603894,0.998448,0.002074,0.124806,-0.035,0.2625,0.5775,-0.45308389359836304,-0.0014615609470914938,-0.17977199649225373
1747152059.6087666,0.996618,0.00183,0.127612,-0.0175,0.15750000000000003,0.525,-0.45308389359836304,-0.0014615609470914938,-0.17977199649225373
1747152059.6136348,0.99735,0.002196,0.124318,0.0175,0.21000000000000002,0.6125,-0.45308389359836304,-0.0014615609470914938,-0.17977199649225373
1747152059.6185071,0.99857,0.003172,0.125538,0.035,0.21000000000000002,0.5950000000000001,-0.45308389359836304,-0.0014615609470914938,-0.17977199649225373
1747152059.6234038,0.996618,0.001464,0.12688,-0.035,0.24500000000000002,0.56,-0.45308389359836304,-0.0014615609470914938,-0.17977199649225373
1747152059.6282544,0.997228,0.003172,0.12456199999999999,-0.052500000000000005,0.14,0.6300000000000001,-0.45308389359836304,-0.0014615609470914938,-0.17977199649225373
1747152059.6331222,0.998448,0.002806,0.126026,-0.22750000000000004,0.24500000000000002,0.6125,-0.45308389359836304,-0.0014615609470914938,-0.17977199649225373
1747152059.6380076,0.997472,0.0030499999999999998,0.124806,-0.0175,0.21000000000000002,0.56,-0.45308389359836304,-0.0014615609470914938,-0.17977199649225373
1747152059.642897,0.996618,0.001464,0.125538,-0.14,0.21000000000000002,0.56,-0.45308389359836304,-0.0014615609470914938,-0.17977199649225373
1747152059.647773,0.997838,0.002562,0.127002,-0.07,0.28,0.6125,-0.45308389359836304,-0.0014615609470914938,-0.17977199649225373
1747152059.652642,0.998814,0.0034159999999999998,0.126392,0.07,0.07,0.49000000000000005,-0.45045308389359834,0.010230926629640456,-0.1809412452499269
1747152059.6575384,0.9977159999999999,0.001464,0.12456199999999999,0.052500000000000005,0.15750000000000003,0.665,-0.45045308389359834,0.010230926629640456,-0.1809412452499269
1747152059.6624134,0.99857,0.002196,0.123708,-0.0175,0.22750000000000004,0.5425000000000001,-0.45045308389359834,0.010230926629640456,-0.1809412452499269
1747152059.6672661,0.997594,0.003538,0.124684,-0.14,0.2625,0.6125,-0.45045308389359834,0.010230926629640456,-0.1809412452499269
1747152059.6721487,0.9952759999999999,0.003172,0.12456199999999999,-0.08750000000000001,0.17500000000000002,0.525,-0.45045308389359834,0.010230926629640456,-0.1809412452499269
1747152059.6770158,0.996374,0.0026839999999999998,0.125172,-0.07,0.21000000000000002,0.5950000000000001,-0.45045308389359834,0.010230926629640456,-0.1809412452499269
1747152059.6818707,0.997838,0.001098,0.125782,-0.12250000000000001,0.29750000000000004,0.665,-0.45045308389359834,0.010230926629640456,-0.1809412452499269
1747152059.6867373,0.997472,0.002196,0.12566,-0.07,0.1925,0.6475000000000001,-0.45045308389359834,0.010230926629640456,-0.1809412452499269
1747152059.691613,0.999668,0.0023179999999999997,0.126514,0.0,0.22750000000000004,0.6125,-0.45045308389359834,0.010230926629640456,-0.1809412452499269
1747152059.6964808,0.99735,0.002196,0.125538,0.0,0.24500000000000002,0.56,-0.45308389359836304,0.00029231218941829873,-0.18211049400760013
1747152059.7013507,0.996374,0.0017079999999999999,0.12505,0.0,0.15750000000000003,0.5075000000000001,-0.45308389359836304,0.00029231218941829873,-0.18211049400760013
1747152059.7062392,0.997838,0.001586,0.125904,-0.08750000000000001,0.24500000000000002,0.6825000000000001,-0.45308389359836304,0.00029231218941829873,-0.18211049400760013
1747152059.7120597,0.9971059999999999,0.004026,0.124074,-0.035,0.24500000000000002,0.6125,-0.45308389359836304,0.00029231218941829873,-0.18211049400760013
1747152059.715973,0.998692,0.003294,0.128466,-0.10500000000000001,0.31500000000000006,0.5425000000000001,-0.45308389359836304,0.00029231218941829873,-0.18211049400760013
1747152059.72084,0.996862,0.001952,0.124684,-0.035,0.1925,0.5075000000000001,-0.45308389359836304,0.00029231218941829873,-0.18211049400760013
1747152059.725742,0.997472,0.0,0.126026,-0.22750000000000004,0.4025,0.6300000000000001,-0.45308389359836304,0.00029231218941829873,-0.18211049400760013
1747152059.7305954,0.997838,0.003538,0.127124,-0.1925,0.3325,0.56,-0.45308389359836304,0.00029231218941829873,-0.18211049400760013
1747152059.7354689,0.998204,0.002562,0.124928,-0.0175,0.21000000000000002,0.6125,-0.45308389359836304,0.00029231218941829873,-0.18211049400760013
1747152059.7403505,0.9971059999999999,0.00183,0.125904,-0.14,0.2625,0.5775,-0.45308389359836304,0.00029231218941829873,-0.18211049400760013
1747152059.7452111,0.997228,0.003904,0.125172,-0.12250000000000001,0.28,0.45500000000000007,-0.4565916398713826,-0.005846243788365975,-0.1891259865536393
1747152059.7500777,0.997228,0.002806,0.126392,-0.08750000000000001,0.15750000000000003,0.5950000000000001,-0.4565916398713826,-0.005846243788365975,-0.1891259865536393
1747152059.7549517,0.996984,0.00244,0.124928,-0.14,0.1925,0.5775,-0.4565916398713826,-0.005846243788365975,-0.1891259865536393
1747152059.7598267,0.996984,0.003172,0.125538,-0.10500000000000001,0.21000000000000002,0.5950000000000001,-0.4565916398713826,-0.005846243788365975,-0.1891259865536393
1747152059.7654078,0.99674,0.003172,0.12456199999999999,-0.08750000000000001,0.22750000000000004,0.665,-0.4565916398713826,-0.005846243788365975,-0.1891259865536393
1747152059.7695694,0.99674,0.001952,0.124928,-0.14,0.2625,0.6300000000000001,-0.4565916398713826,-0.005846243788365975,-0.1891259865536393
1747152059.7744377,0.998204,0.0017079999999999999,0.126514,-0.035,0.14,0.6825000000000001,-0.4565916398713826,-0.005846243788365975,-0.1891259865536393
1747152059.7793133,0.9983259999999999,0.003294,0.127368,-0.0175,0.22750000000000004,0.7000000000000001,-0.4565916398713826,-0.005846243788365975,-0.1891259865536393
1747152059.784178,0.998448,0.00122,0.12395199999999999,0.08750000000000001,0.1925,0.6300000000000001,-0.4565916398713826,-0.005846243788365975,-0.1891259865536393
1747152059.7890494,0.997228,0.003172,0.12383,0.0175,0.1925,0.6475000000000001,-0.4565916398713826,-0.005846243788365975,-0.1891259865536393
1747152059.7939205,0.997838,0.0046359999999999995,0.12688,-0.0175,0.17500000000000002,0.5425000000000001,-0.45717626425021923,-0.0005846243788365975,-0.18196433791289096
1747152059.7988112,0.996252,0.00122,0.123464,0.035,0.22750000000000004,0.6300000000000001,-0.45717626425021923,-0.0005846243788365975,-0.18196433791289096
1747152059.8036735,0.997594,0.001952,0.125538,-0.10500000000000001,0.14,0.5075000000000001,-0.45717626425021923,-0.0005846243788365975,-0.18196433791289096
1747152059.808546,0.99857,0.0008539999999999999,0.124684,-0.08750000000000001,0.07,0.49000000000000005,-0.45717626425021923,-0.0005846243788365975,-0.18196433791289096
1747152059.8134155,0.998814,0.0026839999999999998,0.125172,-0.10500000000000001,0.15750000000000003,0.5950000000000001,-0.45717626425021923,-0.0005846243788365975,-0.18196433791289096
1747152059.8189929,0.9971059999999999,0.0013419999999999999,0.125294,-0.035,0.22750000000000004,0.6475000000000001,-0.45717626425021923,-0.0005846243788365975,-0.18196433791289096
1747152059.8231583,0.9989359999999999,0.001952,0.12566,-0.10500000000000001,0.2625,0.6825000000000001,-0.45717626425021923,-0.0005846243788365975,-0.18196433791289096
1747152059.8280292,0.9995459999999999,0.0026839999999999998,0.125782,-0.12250000000000001,0.15750000000000003,0.5075000000000001,-0.45717626425021923,-0.0005846243788365975,-0.18196433791289096
1747152059.8328946,0.998814,0.00122,0.127612,-0.10500000000000001,0.15750000000000003,0.525,-0.45717626425021923,-0.0005846243788365975,-0.18196433791289096
1747152059.8377695,0.997472,0.000732,0.12456199999999999,-0.10500000000000001,0.1925,0.5425000000000001,-0.4463607132417422,0.00233849751534639,-0.18342589885998245
1747152059.8426394,0.995764,0.00183,0.125294,-0.07,0.22750000000000004,0.6125,-0.4463607132417422,0.00233849751534639,-0.18342589885998245
1747152059.8475742,0.998204,0.00122,0.124074,-0.10500000000000001,0.4025,0.6825000000000001,-0.4463607132417422,0.00233849751534639,-0.18342589885998245
1747152059.8523936,0.998692,0.000976,0.126148,-0.0175,0.31500000000000006,0.6125,-0.4463607132417422,0.00233849751534639,-0.18342589885998245
1747152059.8572552,0.99857,0.00122,0.125904,-0.14,0.21000000000000002,0.6300000000000001,-0.4463607132417422,0.00233849751534639,-0.18342589885998245
1747152059.8621223,0.996374,0.0034159999999999998,0.12566,-0.21000000000000002,0.17500000000000002,0.49000000000000005,-0.4463607132417422,0.00233849751534639,-0.18342589885998245
1747152059.8669987,0.99674,0.001586,0.124318,-0.1925,0.22750000000000004,0.5775,-0.4463607132417422,0.00233849751534639,-0.18342589885998245
1747152059.872596,0.997228,0.0030499999999999998,0.124318,-0.17500000000000002,0.385,0.7175,-0.4463607132417422,0.00233849751534639,-0.18342589885998245
1747152059.876747,0.997228,0.0030499999999999998,0.124318,-0.12250000000000001,0.22750000000000004,0.49000000000000005,-0.4463607132417422,0.00233849751534639,-0.18342589885998245
1747152059.881618,0.9977159999999999,0.0017079999999999999,0.12261,-0.14,0.1925,0.49000000000000005,-0.4463607132417422,0.00233849751534639,-0.18342589885998245
1747152059.8864863,0.997838,0.001098,0.125904,-0.21000000000000002,0.22750000000000004,0.49000000000000005,-0.45688395206080096,-0.006723180356620871,-0.18430283542823736
1747152059.8913558,0.99857,0.001586,0.124074,-0.24500000000000002,0.3325,0.6300000000000001,-0.45688395206080096,-0.006723180356620871,-0.18430283542823736
1747152059.8962379,0.998814,0.0013419999999999999,0.124928,-0.1925,0.43750000000000006,0.7000000000000001,-0.45688395206080096,-0.006723180356620871,-0.18430283542823736
1747152059.9011056,0.997838,0.0017079999999999999,0.125904,-0.14,0.29750000000000004,0.5425000000000001,-0.45688395206080096,-0.006723180356620871,-0.18430283542823736
1747152059.9059746,0.99674,0.00183,0.12688,-0.10500000000000001,0.15750000000000003,0.5075000000000001,-0.45688395206080096,-0.006723180356620871,-0.18430283542823736
1747152059.9108407,0.996984,0.0017079999999999999,0.125904,-0.15750000000000003,0.2625,0.5425000000000001,-0.45688395206080096,-0.006723180356620871,-0.18430283542823736
1747152059.915717,0.99796,0.00122,0.12383,-0.15750000000000003,0.3325,0.665,-0.45688395206080096,-0.006723180356620871,-0.18430283542823736
1747152059.9205873,0.99857,0.00183,0.12749,-0.14,0.35000000000000003,0.6475000000000001,-0.45688395206080096,-0.006723180356620871,-0.18430283542823736
1747152059.9261837,0.997594,0.00244,0.125538,-0.14,0.3325,0.6300000000000001,-0.45688395206080096,-0.006723180356620871,-0.18430283542823736
1747152059.930333,0.998204,0.00366,0.12688,-0.10500000000000001,0.24500000000000002,0.5950000000000001,-0.45688395206080096,-0.006723180356620871,-0.18430283542823736
1747152059.9352114,0.996984,0.00183,0.12627,-0.12250000000000001,0.28,0.5775,-0.4595147617655656,-0.006723180356620871,-0.18430283542823736
1747152059.940085,0.996984,0.002196,0.124196,-0.052500000000000005,0.28,0.5775,-0.4595147617655656,-0.006723180356620871,-0.18430283542823736
1747152059.9449534,0.9964959999999999,0.00183,0.125172,-0.0175,0.17500000000000002,0.5425000000000001,-0.4595147617655656,-0.006723180356620871,-0.18430283542823736
1747152059.9498234,0.997594,0.0023179999999999997,0.126026,0.0175,0.21000000000000002,0.5425000000000001,-0.4595147617655656,-0.006723180356620871,-0.18430283542823736
1747152059.954701,0.9983259999999999,0.0013419999999999999,0.12566,0.052500000000000005,0.21000000000000002,0.56,-0.4595147617655656,-0.006723180356620871,-0.18430283542823736
1747152059.959577,0.997472,0.00122,0.12444,-0.08750000000000001,0.17500000000000002,0.525,-0.4595147617655656,-0.006723180356620871,-0.18430283542823736
1747152059.9644685,0.998204,0.001952,0.12505,-0.14,0.2625,0.5950000000000001,-0.4595147617655656,-0.006723180356620871,-0.18430283542823736
1747152059.9693203,0.9977159999999999,0.0023179999999999997,0.125538,-0.14,0.2625,0.56,-0.4595147617655656,-0.006723180356620871,-0.18430283542823736
1747152059.9741914,0.998082,0.00061,0.12395199999999999,-0.10500000000000001,0.22750000000000004,0.5950000000000001,-0.4595147617655656,-0.006723180356620871,-0.18430283542823736
1747152059.9797804,0.99491,0.0017079999999999999,0.12444,-0.10500000000000001,0.24500000000000002,0.56,-0.4443145279158141,-0.003215434083601286,-0.18605670856474715
1747152059.9839299,0.997594,0.005856,0.12444,-0.07,0.31500000000000006,0.6300000000000001,-0.4443145279158141,-0.003215434083601286,-0.18605670856474715
1747152059.9887965,0.997594,0.0034159999999999998,0.125782,-0.17500000000000002,0.36750000000000005,0.6475000000000001,-0.4443145279158141,-0.003215434083601286,-0.18605670856474715
1747152059.993671,0.999058,0.00244,0.12566,-0.15750000000000003,0.31500000000000006,0.5950000000000001,-0.4443145279158141,-0.003215434083601286,-0.18605670856474715
1747152059.9985895,0.997472,0.002074,0.124684,-0.17500000000000002,0.35000000000000003,0.5950000000000001,-0.4443145279158141,-0.003215434083601286,-0.18605670856474715
1747152060.0034218,0.9971059999999999,0.00183,0.12261,-0.14,0.2625,0.56,-0.4443145279158141,-0.003215434083601286,-0.18605670856474715
1747152060.0082905,0.996862,0.004392,0.125538,-0.08750000000000001,0.15750000000000003,0.525,-0.4443145279158141,-0.003215434083601286,-0.18605670856474715
1747152060.01316,0.99857,0.004392,0.12395199999999999,-0.17500000000000002,0.1925,0.525,-0.4443145279158141,-0.003215434083601286,-0.18605670856474715
1747152060.0180287,0.996984,0.000488,0.124074,-0.15750000000000003,0.2625,0.5425000000000001,-0.4443145279158141,-0.003215434083601286,-0.18605670856474715
1747152060.022903,0.996984,0.001952,0.12566,-0.15750000000000003,0.2625,0.6300000000000001,-0.4443145279158141,-0.003215434083601286,-0.18605670856474715
1747152060.0277774,0.99735,0.0013419999999999999,0.12444,-0.12250000000000001,0.17500000000000002,0.525,-0.45366851797719965,-0.0040923706518561824,-0.1844489915229465
1747152060.033356,0.996862,0.001952,0.126026,-0.15750000000000003,0.29750000000000004,0.6475000000000001,-0.45366851797719965,-0.0040923706518561824,-0.1844489915229465
1747152060.037517,0.996618,0.0008539999999999999,0.126758,-0.14,0.385,0.6825000000000001,-0.45366851797719965,-0.0040923706518561824,-0.1844489915229465
1747152060.0423863,0.999302,0.000122,0.127002,-0.15750000000000003,0.21000000000000002,0.5425000000000001,-0.45366851797719965,-0.0040923706518561824,-0.1844489915229465
1747152060.0472715,0.99796,-0.000488,0.125172,-0.14,0.24500000000000002,0.525,-0.45366851797719965,-0.0040923706518561824,-0.1844489915229465
1747152060.0521398,0.9983259999999999,0.0008539999999999999,0.123708,-0.12250000000000001,0.2625,0.5950000000000001,-0.45366851797719965,-0.0040923706518561824,-0.1844489915229465
1747152060.0569973,0.9977159999999999,0.001586,0.126514,-0.08750000000000001,0.24500000000000002,0.5775,-0.45366851797719965,-0.0040923706518561824,-0.1844489915229465
1747152060.0618725,0.998204,0.001586,0.126392,-0.035,0.15750000000000003,0.5425000000000001,-0.45366851797719965,-0.0040923706518561824,-0.1844489915229465
1747152060.0667472,0.999058,0.0030499999999999998,0.12383,-0.10500000000000001,0.22750000000000004,0.6125,-0.45366851797719965,-0.0040923706518561824,-0.1844489915229465
1747152060.071631,0.998082,0.0017079999999999999,0.126514,-0.10500000000000001,0.22750000000000004,0.6300000000000001,-0.45980707395498394,-0.006723180356620871,-0.1856182402806197
1747152060.0764918,0.997594,0.0017079999999999999,0.124928,-0.10500000000000001,0.24500000000000002,0.6475000000000001,-0.45980707395498394,-0.006723180356620871,-0.1856182402806197
1747152060.081387,0.997228,0.00183,0.124074,-0.0175,0.2625,0.7000000000000001,-0.45980707395498394,-0.006723180356620871,-0.1856182402806197
1747152060.0869892,0.998082,0.001464,0.12688,-0.15750000000000003,0.29750000000000004,0.5950000000000001,-0.45980707395498394,-0.006723180356620871,-0.1856182402806197
1747152060.0911293,0.9983259999999999,0.0023179999999999997,0.125904,-0.15750000000000003,0.29750000000000004,0.56,-0.45980707395498394,-0.006723180356620871,-0.1856182402806197
1747152060.0960052,0.997228,0.001586,0.124806,-0.22750000000000004,0.3325,0.665,-0.45980707395498394,-0.006723180356620871,-0.1856182402806197
1747152060.10088,0.99735,0.0013419999999999999,0.12566,-0.17500000000000002,0.36750000000000005,0.6300000000000001,-0.45980707395498394,-0.006723180356620871,-0.1856182402806197
1747152060.105782,0.997838,0.003538,0.125172,-0.10500000000000001,0.28,0.6125,-0.45980707395498394,-0.006723180356620871,-0.1856182402806197
1747152060.110652,0.99674,0.0026839999999999998,0.126026,-0.1925,0.24500000000000002,0.525,-0.45980707395498394,-0.006723180356620871,-0.1856182402806197
1747152060.1155248,0.9952759999999999,0.0013419999999999999,0.125294,-0.17500000000000002,0.24500000000000002,0.56,-0.45980707395498394,-0.006723180356620871,-0.1856182402806197
1747152060.1203926,0.997838,0.003172,0.127002,-0.1925,0.31500000000000006,0.5950000000000001,-0.4513300204618533,-0.007307804735457469,-0.18488745980707397
1747152060.125273,0.996374,0.002074,0.12566,-0.1925,0.3325,0.6125,-0.4513300204618533,-0.007307804735457469,-0.18488745980707397
1747152060.1301403,0.998082,0.0013419999999999999,0.12566,-0.21000000000000002,0.2625,0.5075000000000001,-0.4513300204618533,-0.007307804735457469,-0.18488745980707397
1747152060.1350203,0.996984,0.0017079999999999999,0.12566,-0.21000000000000002,0.2625,0.6475000000000001,-0.4513300204618533,-0.007307804735457469,-0.18488745980707397
1747152060.1406105,0.996862,0.001952,0.12395199999999999,-0.10500000000000001,0.2625,0.5775,-0.4513300204618533,-0.007307804735457469,-0.18488745980707397
1747152060.1447573,0.999058,0.00122,0.125416,-0.10500000000000001,0.29750000000000004,0.5775,-0.4513300204618533,-0.007307804735457469,-0.18488745980707397
1747152060.14963,0.9971059999999999,0.002806,0.124196,-0.17500000000000002,0.2625,0.5425000000000001,-0.4513300204618533,-0.007307804735457469,-0.18488745980707397
1747152060.1545525,0.999058,0.001098,0.12395199999999999,-0.14,0.24500000000000002,0.56,-0.4513300204618533,-0.007307804735457469,-0.18488745980707397
1747152060.159423,0.998204,0.00183,0.124806,-0.10500000000000001,0.21000000000000002,0.5950000000000001,-0.4513300204618533,-0.007307804735457469,-0.18488745980707397
1747152060.1642947,0.99857,0.002806,0.124928,-0.052500000000000005,0.21000000000000002,0.6125,-0.4513300204618533,-0.007307804735457469,-0.18488745980707397
1747152060.169163,0.996008,0.0023179999999999997,0.126758,-0.07,0.17500000000000002,0.5425000000000001,-0.4466530254311605,0.0014615609470914938,-0.18137971353405438
1747152060.1740322,0.9977159999999999,0.002074,0.125782,-0.10500000000000001,0.22750000000000004,0.6125,-0.4466530254311605,0.0014615609470914938,-0.18137971353405438
1747152060.1789038,0.9983259999999999,0.0017079999999999999,0.125538,-0.035,0.15750000000000003,0.56,-0.4466530254311605,0.0014615609470914938,-0.18137971353405438
1747152060.1837816,0.9952759999999999,0.0,0.126026,-0.052500000000000005,0.22750000000000004,0.5950000000000001,-0.4466530254311605,0.0014615609470914938,-0.18137971353405438
1747152060.1886473,0.998692,0.002196,0.12627,-0.10500000000000001,0.22750000000000004,0.5950000000000001,-0.4466530254311605,0.0014615609470914938,-0.18137971353405438
1747152060.19423,0.997228,0.00244,0.124928,-0.08750000000000001,0.29750000000000004,0.665,-0.4466530254311605,0.0014615609470914938,-0.18137971353405438
1747152060.198473,0.996984,0.00122,0.122366,-0.08750000000000001,0.29750000000000004,0.665,-0.4466530254311605,0.0014615609470914938,-0.18137971353405438
1747152060.2033463,0.99674,0.00244,0.12566,-0.21000000000000002,0.28,0.56,-0.4466530254311605,0.0014615609470914938,-0.18137971353405438
1747152060.2082088,0.996252,0.000244,0.12383,-0.08750000000000001,0.36750000000000005,0.6825000000000001,-0.4466530254311605,0.0014615609470914938,-0.18137971353405438
1747152060.2130795,0.996862,0.001586,0.123708,-0.14,0.28,0.5425000000000001,-0.45016077170418006,0.0005846243788365975,-0.18781058170125695
1747152060.2179542,0.99857,0.001952,0.125172,-0.12250000000000001,0.24500000000000002,0.6475000000000001,-0.45016077170418006,0.0005846243788365975,-0.18781058170125695
1747152060.2228444,0.998204,0.000488,0.124684,-0.15750000000000003,0.24500000000000002,0.5950000000000001,-0.45016077170418006,0.0005846243788365975,-0.18781058170125695
1747152060.2277148,0.99491,0.000366,0.12456199999999999,-0.052500000000000005,0.15750000000000003,0.5775,-0.45016077170418006,0.0005846243788365975,-0.18781058170125695
1747152060.232588,0.997594,0.00244,0.125416,-0.0175,0.12250000000000001,0.56,-0.45016077170418006,0.0005846243788365975,-0.18781058170125695
1747152060.2374551,0.996252,0.001952,0.125294,0.0,0.14,0.5425000000000001,-0.45016077170418006,0.0005846243788365975,-0.18781058170125695
1747152060.2423337,0.9964959999999999,0.000244,0.12566,0.035,0.22750000000000004,0.6825000000000001,-0.45016077170418006,0.0005846243788365975,-0.18781058170125695
1747152060.2479208,0.997228,0.0023179999999999997,0.123342,-0.052500000000000005,0.2625,0.5950000000000001,-0.45016077170418006,0.0005846243788365975,-0.18781058170125695
1747152060.2520757,0.999424,0.003294,0.124806,-0.035,0.22750000000000004,0.5425000000000001,-0.45016077170418006,0.0005846243788365975,-0.18781058170125695
1747152060.2569492,0.999668,0.0013419999999999999,0.125904,-0.052500000000000005,0.22750000000000004,0.56,-0.45016077170418006,0.0005846243788365975,-0.18781058170125695
1747152060.2618186,0.997228,0.0017079999999999999,0.12322,-0.17500000000000002,0.31500000000000006,0.56,-0.46185325928091203,-0.0005846243788365975,-0.19467991815258695
1747152060.2666945,0.996252,0.002562,0.124806,-0.14,0.28,0.5950000000000001,-0.46185325928091203,-0.0005846243788365975,-0.19467991815258695
1747152060.2715678,0.998692,0.001098,0.126758,-0.1925,0.29750000000000004,0.6300000000000001,-0.46185325928091203,-0.0005846243788365975,-0.19467991815258695
1747152060.2764866,0.997594,0.003538,0.12505,-0.17500000000000002,0.3325,0.5950000000000001,-0.46185325928091203,-0.0005846243788365975,-0.19467991815258695
1747152060.2813556,0.998692,0.000122,0.126026,-0.21000000000000002,0.28,0.5950000000000001,-0.46185325928091203,-0.0005846243788365975,-0.19467991815258695
1747152060.286221,0.99796,0.003172,0.125294,-0.17500000000000002,0.31500000000000006,0.5950000000000001,-0.46185325928091203,-0.0005846243788365975,-0.19467991815258695
1747152060.2911239,0.998204,0.000366,0.123098,-0.21000000000000002,0.35000000000000003,0.5775,-0.46185325928091203,-0.0005846243788365975,-0.19467991815258695
1747152060.2959766,0.9989359999999999,-0.000976,0.12505,-0.1925,0.28,0.6125,-0.46185325928091203,-0.0005846243788365975,-0.19467991815258695
1747152060.3015926,0.99979,0.00244,0.12395199999999999,-0.10500000000000001,0.29750000000000004,0.6475000000000001,-0.46185325928091203,-0.0005846243788365975,-0.19467991815258695
1747152060.305734,0.998448,0.001952,0.126026,-0.10500000000000001,0.29750000000000004,0.6475000000000001,-0.45249926921952643,-0.0020461853259280912,-0.18956445483776674
1747152060.3106036,0.998204,0.002196,0.124684,0.0175,0.21000000000000002,0.5425000000000001,-0.45249926921952643,-0.0020461853259280912,-0.18956445483776674
1747152060.3155446,0.997594,0.002562,0.124684,0.035,0.15750000000000003,0.6300000000000001,-0.45249926921952643,-0.0020461853259280912,-0.18956445483776674
1747152060.32035,0.998082,0.002074,0.127246,-0.052500000000000005,0.1925,0.5075000000000001,-0.45249926921952643,-0.0020461853259280912,-0.18956445483776674
1747152060.3252413,0.9977159999999999,0.002806,0.123586,-0.07,0.22750000000000004,0.6475000000000001,-0.45249926921952643,-0.0020461853259280912,-0.18956445483776674
1747152060.330112,0.996252,0.00183,0.124928,-0.17500000000000002,0.22750000000000004,0.5950000000000001,-0.45249926921952643,-0.0020461853259280912,-0.18956445483776674
1747152060.334987,0.998814,0.0026839999999999998,0.125782,-0.1925,0.35000000000000003,0.5775,-0.45249926921952643,-0.0020461853259280912,-0.18956445483776674
1747152060.3398576,0.9964959999999999,0.002196,0.12566,-0.07,0.24500000000000002,0.5950000000000001,-0.45249926921952643,-0.0020461853259280912,-0.18956445483776674
1747152060.3447278,0.99796,0.00244,0.124318,-0.08750000000000001,0.22750000000000004,0.6300000000000001,-0.45249926921952643,-0.0020461853259280912,-0.18956445483776674
1747152060.349606,0.998204,0.001952,0.126758,-0.12250000000000001,0.2625,0.6475000000000001,-0.45249926921952643,-0.0020461853259280912,-0.18956445483776674
1747152060.3551977,0.995764,0.003172,0.12505,-0.052500000000000005,0.07,0.525,-0.4463607132417422,-0.00233849751534639,-0.1989184448991523
1747152060.3593462,0.99674,0.001464,0.124074,-0.08750000000000001,0.24500000000000002,0.6825000000000001,-0.4463607132417422,-0.00233849751534639,-0.1989184448991523
1747152060.364228,0.997472,0.000732,0.12627,-0.0175,0.28,0.6475000000000001,-0.4463607132417422,-0.00233849751534639,-0.1989184448991523
1747152060.3690927,0.996618,0.001586,0.12383,0.0,0.22750000000000004,0.5950000000000001,-0.4463607132417422,-0.00233849751534639,-0.1989184448991523
1747152060.3739655,0.996984,0.002196,0.125172,-0.07,0.29750000000000004,0.56,-0.4463607132417422,-0.00233849751534639,-0.1989184448991523
1747152060.3788357,0.997838,0.002562,0.124318,-0.052500000000000005,0.21000000000000002,0.5775,-0.4463607132417422,-0.00233849751534639,-0.1989184448991523
1747152060.3837404,0.996374,0.001464,0.125416,0.0,0.2625,0.5950000000000001,-0.4463607132417422,-0.00233849751534639,-0.1989184448991523
1747152060.3886037,0.996862,0.00244,0.12444,-0.0175,0.21000000000000002,0.6125,-0.4463607132417422,-0.00233849751534639,-0.1989184448991523
1747152060.3934762,0.996984,0.0017079999999999999,0.125538,-0.08750000000000001,0.2625,0.6300000000000001,-0.4463607132417422,-0.00233849751534639,-0.1989184448991523
1747152060.3983467,0.996618,0.003294,0.125904,-0.12250000000000001,0.29750000000000004,0.6475000000000001,-0.4463607132417422,-0.00233849751534639,-0.1989184448991523
1747152060.4032197,0.999302,0.0013419999999999999,0.124806,-0.08750000000000001,0.22750000000000004,0.56,-0.45279158140894477,-0.008769365682548963,-0.19131832797427653
1747152060.4088006,0.99674,0.0026839999999999998,0.12444,-0.1925,0.2625,0.6125,-0.45279158140894477,-0.008769365682548963,-0.19131832797427653
1747152060.4129589,0.997472,0.00183,0.123342,-0.12250000000000001,0.24500000000000002,0.5950000000000001,-0.45279158140894477,-0.008769365682548963,-0.19131832797427653
1747152060.417827,0.99552,0.004148,0.126514,-0.12250000000000001,0.24500000000000002,0.5775,-0.45279158140894477,-0.008769365682548963,-0.19131832797427653
1747152060.4227004,0.9971059999999999,0.00061,0.125172,-0.052500000000000005,0.2625,0.5950000000000001,-0.45279158140894477,-0.008769365682548963,-0.19131832797427653
1747152060.427573,0.997594,0.002074,0.12444,-0.15750000000000003,0.22750000000000004,0.5950000000000001,-0.45279158140894477,-0.008769365682548963,-0.19131832797427653
1747152060.4324412,0.99735,0.00366,0.123586,-0.10500000000000001,0.22750000000000004,0.6125,-0.45279158140894477,-0.008769365682548963,-0.19131832797427653
1747152060.437315,0.9983259999999999,0.00244,0.12444,0.035,0.2625,0.5950000000000001,-0.45279158140894477,-0.008769365682548963,-0.19131832797427653
1747152060.4423757,0.997228,0.001952,0.124806,0.0,0.15750000000000003,0.5950000000000001,-0.45279158140894477,-0.008769365682548963,-0.19131832797427653
1747152060.4472406,0.997594,0.0013419999999999999,0.124806,-0.07,0.08750000000000001,0.47250000000000003,-0.4533762057877814,-0.007307804735457469,-0.19131832797427653
1747152060.452115,0.996374,0.0017079999999999999,0.12395199999999999,-0.15750000000000003,0.22750000000000004,0.6475000000000001,-0.4533762057877814,-0.007307804735457469,-0.19131832797427653
1747152060.45698,0.9995459999999999,0.0023179999999999997,0.126514,-0.08750000000000001,0.29750000000000004,0.6300000000000001,-0.4533762057877814,-0.007307804735457469,-0.19131832797427653
1747152060.462578,0.998204,0.001098,0.125416,-0.15750000000000003,0.24500000000000002,0.6300000000000001,-0.4533762057877814,-0.007307804735457469,-0.19131832797427653
1747152060.4667206,0.998814,0.0008539999999999999,0.126636,-0.15750000000000003,0.24500000000000002,0.6475000000000001,-0.4533762057877814,-0.007307804735457469,-0.19131832797427653
1747152060.4715922,0.998448,0.002196,0.126636,-0.12250000000000001,0.24500000000000002,0.6300000000000001,-0.4533762057877814,-0.007307804735457469,-0.19131832797427653
1747152060.4764733,0.997228,0.002196,0.125782,-0.12250000000000001,0.24500000000000002,0.6475000000000001,-0.4533762057877814,-0.007307804735457469,-0.19131832797427653
1747152060.4813435,0.99735,0.0023179999999999997,0.12383,-0.052500000000000005,0.24500000000000002,0.665,-0.4533762057877814,-0.007307804735457469,-0.19131832797427653
1747152060.4862154,0.997472,0.0030499999999999998,0.1281,-0.052500000000000005,0.1925,0.5775,-0.4533762057877814,-0.007307804735457469,-0.19131832797427653
1747152060.491083,0.996374,0.0017079999999999999,0.124928,-0.052500000000000005,0.24500000000000002,0.5950000000000001,-0.4533762057877814,-0.007307804735457469,-0.19131832797427653
1747152060.4959507,0.997472,0.001464,0.12383,-0.0175,0.21000000000000002,0.56,-0.4574685764396375,0.004969307220111079,-0.19336451330020463
1747152060.5008256,0.998448,0.00244,0.124074,-0.0175,0.1925,0.5950000000000001,-0.4574685764396375,0.004969307220111079,-0.19336451330020463
1747152060.5057535,0.996984,0.000976,0.123464,0.0175,0.21000000000000002,0.6300000000000001,-0.4574685764396375,0.004969307220111079,-0.19336451330020463
1747152060.510603,0.998204,0.001586,0.12456199999999999,0.0,0.17500000000000002,0.5775,-0.4574685764396375,0.004969307220111079,-0.19336451330020463
1747152060.5161972,0.996984,0.00366,0.126514,-0.12250000000000001,0.29750000000000004,0.5775,-0.4574685764396375,0.004969307220111079,-0.19336451330020463
1747152060.5205204,0.9995459999999999,0.002928,0.125782,-0.15750000000000003,0.31500000000000006,0.5425000000000001,-0.4574685764396375,0.004969307220111079,-0.19336451330020463
1747152060.5252206,0.9971059999999999,0.00244,0.127856,-0.1925,0.35000000000000003,0.5775,-0.4574685764396375,0.004969307220111079,-0.19336451330020463
1747152060.5300817,0.999058,0.001952,0.12566,0.052500000000000005,0.22750000000000004,0.6125,-0.4574685764396375,0.004969307220111079,-0.19336451330020463
1747152060.5349514,0.99674,0.0030499999999999998,0.125782,0.052500000000000005,0.1925,0.6125,-0.4574685764396375,0.004969307220111079,-0.19336451330020463
1747152060.5398333,0.9971059999999999,0.002806,0.123708,-0.035,0.22750000000000004,0.5775,-0.4574685764396375,-0.0014615609470914938,-0.19307220111078632
1747152060.5447006,0.996618,0.0023179999999999997,0.123708,-0.14,0.15750000000000003,0.5425000000000001,-0.45220695703010816,-0.0014615609470914938,-0.19307220111078632
1747152060.5495741,0.9964959999999999,0.001586,0.124318,0.0,0.21000000000000002,0.5775,-0.45220695703010816,-0.0014615609470914938,-0.19307220111078632
1747152060.5544438,0.996984,0.002074,0.127002,-0.12250000000000001,0.28,0.6300000000000001,-0.45220695703010816,-0.0014615609470914938,-0.19307220111078632
1747152060.559325,0.997838,0.00061,0.155794,-0.0175,0.21000000000000002,0.6300000000000001,-0.45220695703010816,-0.0014615609470914938,-0.19307220111078632
1747152060.5641932,0.9964959999999999,0.002562,0.12505,-0.0175,0.15750000000000003,0.5425000000000001,-0.45220695703010816,-0.0014615609470914938,-0.19307220111078632
1747152060.5697975,0.99857,0.0023179999999999997,0.127368,0.0,0.17500000000000002,0.5775,-0.45220695703010816,-0.0014615609470914938,-0.19307220111078632
1747152060.5739298,0.9977159999999999,0.00122,0.126148,-0.07,0.22750000000000004,0.5950000000000001,-0.45220695703010816,-0.0014615609470914938,-0.19307220111078632
1747152060.578803,0.997838,0.0013419999999999999,0.124196,-0.052500000000000005,0.1925,0.6125,-0.45220695703010816,-0.0014615609470914938,-0.19307220111078632
1747152060.5836775,0.996374,0.000732,0.124196,0.0,0.14,0.5425000000000001,-0.45220695703010816,-0.0014615609470914938,-0.19307220111078632
1747152060.5885763,0.9989359999999999,0.0017079999999999999,0.12383,0.0,0.17500000000000002,0.5425000000000001,-0.45249926921952643,0.008477053493130663,-0.18050277696579947
1747152060.5934694,0.999668,0.00183,0.124928,-0.052500000000000005,0.1925,0.5775,-0.45249926921952643,0.008477053493130663,-0.18050277696579947
1747152060.598319,0.996618,0.000366,0.127124,-0.14,0.2625,0.5950000000000001,-0.45249926921952643,0.008477053493130663,-0.18050277696579947
1747152060.6031876,0.998814,0.0017079999999999999,0.12395199999999999,-0.08750000000000001,0.2625,0.6300000000000001,-0.45249926921952643,0.008477053493130663,-0.18050277696579947
1747152060.608055,0.99796,-0.000366,0.126758,-0.035,0.1925,0.5775,-0.45249926921952643,0.008477053493130663,-0.18050277696579947
1747152060.6130652,0.997228,0.001952,0.12383,-0.035,0.28,0.5425000000000001,-0.45249926921952643,0.008477053493130663,-0.18050277696579947
1747152060.617814,0.9971059999999999,0.0013419999999999999,0.125538,-0.14,0.28,0.56,-0.45249926921952643,0.008477053493130663,-0.18050277696579947
1747152060.623417,0.998448,0.00122,0.125538,-0.12250000000000001,0.24500000000000002,0.525,-0.45249926921952643,0.008477053493130663,-0.18050277696579947
1747152060.6275568,0.998082,0.0026839999999999998,0.126026,0.052500000000000005,0.15750000000000003,0.6125,-0.45249926921952643,0.008477053493130663,-0.18050277696579947
1747152060.632421,0.996618,0.002074,0.124684,-0.035,0.15750000000000003,0.5775,-0.45249926921952643,0.008477053493130663,-0.18050277696579947
1747152060.6372914,0.998814,0.0017079999999999999,0.124196,-0.0175,0.1925,0.5425000000000001,-0.44811458637825197,0.0029231218941829875,-0.18284127448114587
1747152060.6421697,0.9977159999999999,0.000122,0.12456199999999999,0.07,0.17500000000000002,0.5950000000000001,-0.44811458637825197,0.0029231218941829875,-0.18284127448114587
1747152060.647041,0.996374,0.001952,0.125782,0.035,0.22750000000000004,0.5775,-0.44811458637825197,0.0029231218941829875,-0.18284127448114587
1747152060.6519127,0.996252,0.002074,0.12566,-0.0175,0.24500000000000002,0.5950000000000001,-0.44811458637825197,0.0029231218941829875,-0.18284127448114587
1747152060.656778,0.997228,0.001586,0.124196,-0.035,0.2625,0.5950000000000001,-0.44811458637825197,0.0029231218941829875,-0.18284127448114587
1747152060.66165,0.9983259999999999,0.000244,0.125294,-0.052500000000000005,0.21000000000000002,0.5950000000000001,-0.44811458637825197,0.0029231218941829875,-0.18284127448114587
1747152060.6665308,0.997594,0.002562,0.125416,-0.07,0.12250000000000001,0.56,-0.44811458637825197,0.0029231218941829875,-0.18284127448114587
1747152060.6714044,0.996862,0.002928,0.124318,-0.14,0.28,0.5950000000000001,-0.44811458637825197,0.0029231218941829875,-0.18284127448114587
1747152060.6770356,0.998082,0.002928,0.125782,-0.15750000000000003,0.28,0.6125,-0.44811458637825197,0.0029231218941829875,-0.18284127448114587
1747152060.6811466,0.998082,0.002928,0.127124,-0.14,0.2625,0.5775,-0.4565916398713826,-0.0008769365682548962,-0.18897983045893013
1747152060.6860197,0.998448,0.003172,0.125416,-0.17500000000000002,0.22750000000000004,0.5775,-0.4565916398713826,-0.0008769365682548962,-0.18897983045893013
1747152060.6908886,0.997228,0.003294,0.125294,-0.15750000000000003,0.3325,0.6300000000000001,-0.4565916398713826,-0.0008769365682548962,-0.18897983045893013
1747152060.6957605,0.99796,0.00183,0.12566,-0.22750000000000004,0.385,0.6475000000000001,-0.4565916398713826,-0.0008769365682548962,-0.18897983045893013
1747152060.7006328,0.998814,0.002806,0.126148,-0.22750000000000004,0.31500000000000006,0.5950000000000001,-0.4565916398713826,-0.0008769365682548962,-0.18897983045893013
1747152060.7055054,0.9977159999999999,0.00244,0.12383,-0.28,0.29750000000000004,0.5425000000000001,-0.4565916398713826,-0.0008769365682548962,-0.18897983045893013
1747152060.7103803,0.997228,0.001952,0.12627,-0.1925,0.2625,0.56,-0.4565916398713826,-0.0008769365682548962,-0.18897983045893013
1747152060.7152667,0.996984,0.001464,0.12285399999999999,-0.21000000000000002,0.28,0.6475000000000001,-0.4565916398713826,-0.0008769365682548962,-0.18897983045893013
1747152060.7201235,0.999302,0.002196,0.123342,-0.15750000000000003,0.2625,0.6125,-0.4565916398713826,-0.0008769365682548962,-0.18897983045893013
1747152060.725132,0.998692,0.001586,0.126636,-0.07,0.17500000000000002,0.525,-0.4565916398713826,-0.0008769365682548962,-0.18897983045893013
1747152060.730743,0.99735,0.002806,0.124684,-0.15750000000000003,0.1925,0.56,-0.45454545454545453,0.00233849751534639,-0.19117217187956737
1747152060.7347987,0.997228,0.000976,0.124684,-0.21000000000000002,0.28,0.5775,-0.45454545454545453,0.00233849751534639,-0.19117217187956737
1747152060.73967,0.996618,0.0026839999999999998,0.125294,-0.035,0.28,0.6125,-0.45454545454545453,0.00233849751534639,-0.19117217187956737
1747152060.7445385,0.996618,0.002562,0.125538,-0.035,0.2625,0.5950000000000001,-0.45454545454545453,0.00233849751534639,-0.19117217187956737
1747152060.7494152,0.99735,0.0017079999999999999,0.126758,-0.052500000000000005,0.21000000000000002,0.5775,-0.45454545454545453,0.00233849751534639,-0.19117217187956737
1747152060.7542841,0.9977159999999999,0.0030499999999999998,0.125538,-0.035,0.1925,0.56,-0.45454545454545453,0.00233849751534639,-0.19117217187956737
1747152060.7591522,0.99735,0.0013419999999999999,0.123464,-0.14,0.31500000000000006,0.5950000000000001,-0.45454545454545453,0.00233849751534639,-0.19117217187956737
1747152060.7640257,0.9977159999999999,0.00183,0.12456199999999999,-0.10500000000000001,0.28,0.6475000000000001,-0.45454545454545453,0.00233849751534639,-0.19117217187956737
1747152060.768903,0.998692,0.001098,0.126758,-0.07,0.24500000000000002,0.5425000000000001,-0.45454545454545453,0.00233849751534639,-0.19117217187956737
1747152060.773768,0.9983259999999999,0.0013419999999999999,0.124806,-0.10500000000000001,0.1925,0.5950000000000001,-0.45454545454545453,-0.03507746273019585,-0.1867874890382929
1747152060.778648,0.99857,0.00183,0.125416,-0.1925,0.17500000000000002,0.5425000000000001,-0.4448991522946507,-0.01140017538731365,-0.1867874890382929
1747152060.7842395,0.99796,0.0013419999999999999,0.125294,-0.21000000000000002,0.29750000000000004,0.6300000000000001,-0.4448991522946507,-0.01140017538731365,-0.1867874890382929
1747152060.7884462,0.99796,0.0013419999999999999,0.125294,-0.07,0.17500000000000002,0.45500000000000007,-0.4448991522946507,-0.01140017538731365,-0.1867874890382929
1747152060.7933168,0.998692,0.000976,0.126392,-0.2625,0.21000000000000002,0.47250000000000003,-0.4448991522946507,-0.01140017538731365,-0.1867874890382929
1747152060.7981892,0.995642,0.00244,0.124318,0.035,0.12250000000000001,0.525,-0.4448991522946507,-0.01140017538731365,-0.1867874890382929
1747152060.803059,0.998814,0.002074,0.125538,0.07,0.12250000000000001,0.5075000000000001,-0.4448991522946507,-0.01140017538731365,-0.1867874890382929
1747152060.807939,0.99735,0.00061,0.125782,-0.15750000000000003,0.29750000000000004,0.665,-0.4448991522946507,-0.01140017538731365,-0.1867874890382929
1747152060.8128097,0.99613,0.00122,0.123464,-0.15750000000000003,0.385,0.7000000000000001,-0.4448991522946507,-0.01140017538731365,-0.1867874890382929
1747152060.8176773,0.99796,0.0034159999999999998,0.124684,0.0,0.22750000000000004,0.6300000000000001,-0.4448991522946507,-0.01140017538731365,-0.1867874890382929
1747152060.8225517,0.997594,0.002074,0.125782,-0.0175,0.17500000000000002,0.56,-0.4533762057877814,-0.0043846828412744815,-0.1905875475007308
1747152060.8274274,0.996862,0.001464,0.126392,-0.035,0.17500000000000002,0.5425000000000001,-0.4533762057877814,-0.0043846828412744815,-0.1905875475007308
1747152060.8322966,0.99735,0.001952,0.12627,0.052500000000000005,0.2625,0.6125,-0.4533762057877814,-0.0043846828412744815,-0.1905875475007308
1747152060.837912,0.9971059999999999,0.0023179999999999997,0.12456199999999999,0.07,0.14,0.5950000000000001,-0.4533762057877814,-0.0043846828412744815,-0.1905875475007308
1747152060.8420389,0.997228,0.002074,0.124928,-0.052500000000000005,0.15750000000000003,0.56,-0.4533762057877814,-0.0043846828412744815,-0.1905875475007308
1747152060.8469086,0.999058,0.002074,0.124684,-0.10500000000000001,0.22750000000000004,0.6125,-0.4533762057877814,-0.0043846828412744815,-0.1905875475007308
1747152060.8517773,0.9964959999999999,0.00244,0.124806,0.0175,0.17500000000000002,0.5950000000000001,-0.4533762057877814,-0.0043846828412744815,-0.1905875475007308
1747152060.8566487,0.9977159999999999,0.0026839999999999998,0.125782,-0.0175,0.1925,0.5950000000000001,-0.4533762057877814,-0.0043846828412744815,-0.1905875475007308
1747152060.8615189,0.9971059999999999,0.000976,0.12505,-0.052500000000000005,0.17500000000000002,0.6300000000000001,-0.4533762057877814,-0.0043846828412744815,-0.1905875475007308
1747152060.8663867,0.99735,0.00244,0.124196,-0.0175,0.17500000000000002,0.5950000000000001,-0.4533762057877814,-0.0043846828412744815,-0.1905875475007308
1747152060.8712718,1.001742,0.003294,0.126148,0.0,0.15750000000000003,0.5775,-0.44606840105232387,0.0017538731365097924,-0.1856182402806197
1747152060.8761501,0.997472,0.000366,0.125904,-0.07,0.1925,0.6300000000000001,-0.44606840105232387,0.0017538731365097924,-0.1856182402806197
1747152060.881029,0.9977159999999999,0.001464,0.125904,-0.12250000000000001,0.2625,0.5950000000000001,-0.44606840105232387,0.0017538731365097924,-0.1856182402806197
1747152060.885882,0.998204,0.0026839999999999998,0.125782,-0.10500000000000001,0.31500000000000006,0.6125,-0.44606840105232387,0.0017538731365097924,-0.1856182402806197
1747152060.8914728,0.99857,0.003538,0.126026,-0.12250000000000001,0.2625,0.56,-0.44606840105232387,0.0017538731365097924,-0.1856182402806197
1747152060.8956294,0.997838,0.002196,0.126026,-0.07,0.17500000000000002,0.56,-0.44606840105232387,0.0017538731365097924,-0.1856182402806197
1747152060.900493,0.9983259999999999,0.00183,0.124806,-0.17500000000000002,0.28,0.6125,-0.44606840105232387,0.0017538731365097924,-0.1856182402806197
1747152060.9053683,0.998448,0.0042699999999999995,0.125294,-0.14,0.31500000000000006,0.6125,-0.44606840105232387,0.0017538731365097924,-0.1856182402806197
1747152060.9102383,0.999058,0.002196,0.124318,-0.14,0.29750000000000004,0.5950000000000001,-0.44606840105232387,0.0017538731365097924,-0.1856182402806197
1747152060.915112,0.996984,0.0023179999999999997,0.12383,-0.14,0.22750000000000004,0.5075000000000001,-0.45717626425021923,-0.005261619409529378,-0.19014907921660334
1747152060.919986,0.997838,0.0023179999999999997,0.124074,-0.10500000000000001,0.22750000000000004,0.6125,-0.45717626425021923,-0.005261619409529378,-0.19014907921660334
1747152060.9248545,0.997472,0.00122,0.123586,-0.15750000000000003,0.35000000000000003,0.6475000000000001,-0.45717626425021923,-0.005261619409529378,-0.19014907921660334
1747152060.929721,0.997594,0.002928,0.126392,-0.15750000000000003,0.24500000000000002,0.5950000000000001,-0.45717626425021923,-0.005261619409529378,-0.19014907921660334
1747152060.9345872,0.998692,0.0008539999999999999,0.12383,-0.21000000000000002,0.3325,0.6300000000000001,-0.45717626425021923,-0.005261619409529378,-0.19014907921660334
1747152060.9394636,0.9977159999999999,0.002562,0.124928,-0.17500000000000002,0.31500000000000006,0.5775,-0.45717626425021923,-0.005261619409529378,-0.19014907921660334
1747152060.9450455,0.99796,0.003904,0.124196,-0.24500000000000002,0.31500000000000006,0.5775,-0.45717626425021923,-0.005261619409529378,-0.19014907921660334
1747152060.9491997,0.99796,0.0030499999999999998,0.124684,-0.10500000000000001,0.24500000000000002,0.5950000000000001,-0.45717626425021923,-0.005261619409529378,-0.19014907921660334
1747152060.954077,0.99613,0.000366,0.126514,-0.07,0.2625,0.5950000000000001,-0.45717626425021923,-0.005261619409529378,-0.19014907921660334
1747152060.9589522,0.99857,0.0026839999999999998,0.12749,-0.24500000000000002,0.35000000000000003,0.5425000000000001,-0.45717626425021923,-0.005261619409529378,-0.19014907921660334
1747152060.963823,0.998204,0.001464,0.124928,-0.15750000000000003,0.24500000000000002,0.47250000000000003,-0.45483776673487286,-0.0005846243788365975,-0.18927214264834843
1747152060.9686923,0.99796,0.002074,0.125904,-0.08750000000000001,0.21000000000000002,0.6125,-0.45483776673487286,-0.0005846243788365975,-0.18927214264834843
1747152060.973567,0.997228,0.00122,0.123708,-0.24500000000000002,0.3325,0.665,-0.45483776673487286,-0.0005846243788365975,-0.18927214264834843
1747152060.978435,0.99796,0.0034159999999999998,0.12383,-0.1925,0.31500000000000006,0.56,-0.45483776673487286,-0.0005846243788365975,-0.18927214264834843
1747152060.983308,0.998082,0.001098,0.124806,-0.035,0.22750000000000004,0.5950000000000001,-0.45483776673487286,-0.0005846243788365975,-0.18927214264834843
1747152060.988175,0.99735,0.002196,0.12444,-0.052500000000000005,0.22750000000000004,0.5950000000000001,-0.45483776673487286,-0.0005846243788365975,-0.18927214264834843
1747152060.9930463,0.998082,0.0023179999999999997,0.12627,-0.12250000000000001,0.1925,0.5950000000000001,-0.45483776673487286,-0.0005846243788365975,-0.18927214264834843
1747152060.9986346,0.9964959999999999,0.002074,0.126758,-0.14,0.2625,0.5775,-0.45483776673487286,-0.0005846243788365975,-0.18927214264834843
1747152061.0027957,0.99552,0.002928,0.125294,-0.14,0.2625,0.6300000000000001,-0.45483776673487286,-0.0005846243788365975,-0.18927214264834843
1747152061.0076683,0.996984,0.002928,0.126392,-0.17500000000000002,0.17500000000000002,0.5775,-0.45483776673487286,-0.0005846243788365975,-0.18927214264834843
1747152061.0125365,0.997838,0.0013419999999999999,0.124684,0.052500000000000005,0.10500000000000001,0.525,-0.44899152294650685,0.0,-0.1867874890382929
1747152061.017406,0.998814,0.0023179999999999997,0.12566,0.0,0.24500000000000002,0.665,-0.44899152294650685,0.0,-0.1867874890382929
1747152061.0222847,0.9964959999999999,0.000976,0.124928,-0.035,0.24500000000000002,0.5425000000000001,-0.44899152294650685,0.0,-0.1867874890382929
1747152061.0271573,0.998692,0.0017079999999999999,0.12566,-0.08750000000000001,0.24500000000000002,0.6125,-0.44899152294650685,0.0,-0.1867874890382929
1747152061.0320296,0.996862,0.00183,0.125416,-0.07,0.22750000000000004,0.6125,-0.44899152294650685,0.0,-0.1867874890382929
1747152061.036895,0.9977159999999999,0.003294,0.124318,-0.052500000000000005,0.21000000000000002,0.5950000000000001,-0.44899152294650685,0.0,-0.1867874890382929
1747152061.0417666,0.998204,0.0023179999999999997,0.12505,-0.07,0.2625,0.5425000000000001,-0.44899152294650685,0.0,-0.1867874890382929
1747152061.0466375,0.996618,0.0017079999999999999,0.125904,-0.07,0.22750000000000004,0.5775,-0.44899152294650685,0.0,-0.1867874890382929
1747152061.0522285,0.998692,0.002806,0.126148,-0.035,0.31500000000000006,0.5775,-0.44899152294650685,0.0,-0.1867874890382929
1747152061.0563796,0.998204,0.0013419999999999999,0.125172,-0.035,0.10500000000000001,0.5425000000000001,-0.4519146448406899,-0.00233849751534639,-0.18664133294358376
1747152061.0612466,0.997838,0.002074,0.123464,-0.0175,0.12250000000000001,0.5775,-0.4519146448406899,-0.00233849751534639,-0.18664133294358376
1747152061.066121,0.99857,0.002562,0.12322,-0.035,0.22750000000000004,0.56,-0.4519146448406899,-0.00233849751534639,-0.18664133294358376
1747152061.0709972,0.9971059999999999,0.001098,0.12505,-0.07,0.29750000000000004,0.6125,-0.4519146448406899,-0.00233849751534639,-0.18664133294358376
1747152061.0758712,0.996252,0.001464,0.12456199999999999,-0.10500000000000001,0.28,0.56,-0.4519146448406899,-0.00233849751534639,-0.18664133294358376
1747152061.0807393,0.9983259999999999,0.002928,0.124318,-0.17500000000000002,0.29750000000000004,0.5775,-0.4519146448406899,-0.00233849751534639,-0.18664133294358376
1747152061.085611,0.997838,0.000732,0.125294,-0.28,0.31500000000000006,0.5950000000000001,-0.4519146448406899,-0.00233849751534639,-0.18664133294358376
1747152061.0904827,0.99796,0.0017079999999999999,0.12444,-0.21000000000000002,0.3325,0.5950000000000001,-0.4519146448406899,-0.00233849751534639,-0.18664133294358376
1747152061.095361,0.997472,0.000122,0.125172,-0.2625,0.28,0.5775,-0.4519146448406899,-0.00233849751534639,-0.18664133294358376
1747152061.1002305,0.996862,0.003538,0.12505,-0.24500000000000002,0.28,0.5425000000000001,-0.4519146448406899,-0.00233849751534639,-0.18664133294358376
1747152061.1058447,0.99918,0.002196,0.124074,-0.14,0.2625,0.56,-0.45483776673487286,0.0005846243788365975,-0.1891259865536393
1747152061.1099737,0.997472,0.003904,0.12444,-0.10500000000000001,0.2625,0.56,-0.45483776673487286,0.0005846243788365975,-0.1891259865536393
1747152061.1148422,0.99735,0.004148,0.12505,-0.035,0.24500000000000002,0.6475000000000001,-0.45483776673487286,0.0005846243788365975,-0.1891259865536393
1747152061.1197104,0.998204,0.002196,0.12456199999999999,-0.12250000000000001,0.36750000000000005,0.56,-0.45483776673487286,0.0005846243788365975,-0.1891259865536393
1747152061.1245835,0.997228,0.001586,0.125172,-0.12250000000000001,0.15750000000000003,0.525,-0.45483776673487286,0.0005846243788365975,-0.1891259865536393
1747152061.1294591,0.997472,0.0030499999999999998,0.125172,-0.12250000000000001,0.28,0.6300000000000001,-0.45483776673487286,0.0005846243788365975,-0.1891259865536393
1747152061.1343288,0.99857,0.0026839999999999998,0.127124,-0.052500000000000005,0.28,0.6125,-0.45483776673487286,0.0005846243788365975,-0.1891259865536393
1747152061.1392066,0.9952759999999999,0.00122,0.126758,-0.07,0.22750000000000004,0.5425000000000001,-0.45483776673487286,0.0005846243788365975,-0.1891259865536393
1747152061.1440759,0.9681919999999999,0.001098,0.12383,-0.07,0.24500000000000002,0.5775,-0.45483776673487286,0.0005846243788365975,-0.1891259865536393
1747152061.1489406,0.99857,0.002562,0.126026,-0.08750000000000001,0.21000000000000002,0.5775,-0.4519146448406899,0.001169248757673195,-0.1856182402806197
1747152061.1538181,0.997472,0.001952,0.125782,-0.035,0.22750000000000004,0.5775,-0.4519146448406899,0.001169248757673195,-0.1856182402806197
1747152061.159404,0.9989359999999999,0.002562,0.12395199999999999,0.035,0.21000000000000002,0.6125,-0.4519146448406899,0.001169248757673195,-0.1856182402806197
1747152061.1635573,0.9977159999999999,0.001586,0.125172,-0.07,0.24500000000000002,0.5950000000000001,-0.4519146448406899,0.001169248757673195,-0.1856182402806197
1747152061.1684313,0.996862,0.00183,0.12444,-0.052500000000000005,0.21000000000000002,0.56,-0.4519146448406899,0.001169248757673195,-0.1856182402806197
1747152061.173301,0.99735,0.002074,0.12444,0.035,0.1925,0.6475000000000001,-0.4519146448406899,0.001169248757673195,-0.1856182402806197
1747152061.1781757,0.99796,0.001098,0.125172,0.035,0.17500000000000002,0.6125,-0.4519146448406899,0.001169248757673195,-0.1856182402806197
1747152061.1830537,0.99796,0.0013419999999999999,0.124318,0.052500000000000005,0.15750000000000003,0.6125,-0.4519146448406899,0.001169248757673195,-0.1856182402806197
1747152061.1879218,0.997594,0.0008539999999999999,0.124074,-0.052500000000000005,0.24500000000000002,0.6475000000000001,-0.4519146448406899,0.001169248757673195,-0.1856182402806197
1747152061.1927896,0.997594,0.0008539999999999999,0.123098,-0.12250000000000001,0.29750000000000004,0.6125,-0.4519146448406899,0.001169248757673195,-0.1856182402806197
1747152061.1976604,0.9977159999999999,0.002074,0.125294,-0.07,0.2625,0.5950000000000001,-0.4492838351359252,0.005261619409529378,-0.18167202572347266
1747152061.2025313,0.998814,0.0023179999999999997,0.125538,-0.035,0.1925,0.5775,-0.4492838351359252,0.005261619409529378,-0.18167202572347266
1747152061.2074053,0.99796,0.00061,0.124684,0.0,0.29750000000000004,0.6825000000000001,-0.4492838351359252,0.005261619409529378,-0.18167202572347266
1747152061.212987,0.99796,0.000122,0.12456199999999999,-0.0175,0.21000000000000002,0.6125,-0.4492838351359252,0.005261619409529378,-0.18167202572347266
1747152061.2171454,0.99796,0.00122,0.125416,-0.10500000000000001,0.3325,0.6300000000000001,-0.4492838351359252,0.005261619409529378,-0.18167202572347266
1747152061.2220185,0.998448,0.002928,0.124806,-0.0175,0.22750000000000004,0.5425000000000001,-0.4492838351359252,0.005261619409529378,-0.18167202572347266
1747152061.2268913,0.996008,0.0026839999999999998,0.126636,-0.12250000000000001,0.1925,0.56,-0.4492838351359252,0.005261619409529378,-0.18167202572347266
1747152061.2317612,0.997472,0.0023179999999999997,0.123342,-0.17500000000000002,0.2625,0.6300000000000001,-0.4492838351359252,0.005261619409529378,-0.18167202572347266
1747152061.2366278,0.9983259999999999,0.0030499999999999998,0.124074,-0.15750000000000003,0.24500000000000002,0.6300000000000001,-0.4492838351359252,0.005261619409529378,-0.18167202572347266
1747152061.2415037,0.996618,0.001464,0.124928,-0.17500000000000002,0.31500000000000006,0.6125,-0.4492838351359252,0.005261619409529378,-0.18167202572347266
1747152061.2463753,0.9971059999999999,0.001098,0.123342,-0.1925,0.2625,0.5775,-0.44694533762057875,0.0040923706518561824,-0.19029523531131248
1747152061.2512622,0.998448,0.001952,0.124684,-0.17500000000000002,0.35000000000000003,0.5950000000000001,-0.44694533762057875,0.0040923706518561824,-0.19029523531131248
1747152061.2561235,0.997594,0.002928,0.12444,-0.14,0.24500000000000002,0.5425000000000001,-0.44694533762057875,0.0040923706518561824,-0.19029523531131248
1747152061.260994,0.9983259999999999,0.0023179999999999997,0.12566,-0.10500000000000001,0.29750000000000004,0.5425000000000001,-0.44694533762057875,0.0040923706518561824,-0.19029523531131248
1747152061.2665815,0.997472,0.002196,0.124318,-0.1925,0.35000000000000003,0.6300000000000001,-0.44694533762057875,0.0040923706518561824,-0.19029523531131248
1747152061.2707376,0.998204,0.002562,0.124684,-0.12250000000000001,0.24500000000000002,0.56,-0.44694533762057875,0.0040923706518561824,-0.19029523531131248
1747152061.2756088,0.998082,0.00244,0.124318,-0.15750000000000003,0.28,0.6125,-0.44694533762057875,0.0040923706518561824,-0.19029523531131248
1747152061.2804837,0.997594,0.003904,0.12566,-0.07,0.21000000000000002,0.5950000000000001,-0.44694533762057875,0.0040923706518561824,-0.19029523531131248
1747152061.2853572,0.996862,0.001464,0.126392,-0.10500000000000001,0.2625,0.6125,-0.44694533762057875,0.0040923706518561824,-0.19029523531131248
1747152061.2902243,0.997228,0.0023179999999999997,0.125294,-0.07,0.2625,0.5425000000000001,-0.4519146448406899,-0.00233849751534639,-0.1882490499853844
1747152061.2951043,0.999058,0.00061,0.124318,-0.0175,0.21000000000000002,0.5950000000000001,-0.4519146448406899,-0.00233849751534639,-0.1882490499853844
1747152061.3000348,0.9971059999999999,0.002196,0.12456199999999999,-0.035,0.28,0.6300000000000001,-0.4519146448406899,-0.00233849751534639,-0.1882490499853844
1747152061.3048494,0.998448,0.0008539999999999999,0.123586,-0.0175,0.17500000000000002,0.56,-0.4519146448406899,-0.00233849751534639,-0.1882490499853844
1747152061.3097553,0.9971059999999999,0.003172,0.12627,-0.035,0.22750000000000004,0.6300000000000001,-0.4519146448406899,-0.00233849751534639,-0.1882490499853844
1747152061.314602,0.997594,0.003294,0.124074,-0.0175,0.17500000000000002,0.5950000000000001,-0.4519146448406899,-0.00233849751534639,-0.1882490499853844
1747152061.3201864,0.997838,0.0008539999999999999,0.124928,-0.08750000000000001,0.22750000000000004,0.6125,-0.4519146448406899,-0.00233849751534639,-0.1882490499853844
1747152061.324343,0.998204,-0.000732,0.123342,-0.10500000000000001,0.31500000000000006,0.6125,-0.4519146448406899,-0.00233849751534639,-0.1882490499853844
1747152061.3292112,0.99674,0.00122,0.12383,0.035,0.22750000000000004,0.5775,-0.4519146448406899,-0.00233849751534639,-0.1882490499853844
1747152061.3340876,0.997838,0.00122,0.123708,-0.17500000000000002,0.22750000000000004,0.5425000000000001,-0.4519146448406899,-0.00233849751534639,-0.1882490499853844
1747152061.3389628,0.9971059999999999,0.001586,0.126148,-0.21000000000000002,0.36750000000000005,0.5775,-0.45366851797719965,0.003800058462437884,-0.185910552470038
1747152061.3438404,0.998204,0.0013419999999999999,0.124318,-0.1925,0.2625,0.525,-0.45366851797719965,0.003800058462437884,-0.185910552470038
1747152061.3487043,0.998448,0.002806,0.12505,-0.24500000000000002,0.29750000000000004,0.5950000000000001,-0.45366851797719965,0.003800058462437884,-0.185910552470038
1747152061.3536246,0.99796,0.001586,0.125904,-0.17500000000000002,0.28,0.56,-0.45366851797719965,0.003800058462437884,-0.185910552470038
1747152061.3584938,0.998082,0.0023179999999999997,0.12627,-0.15750000000000003,0.24500000000000002,0.5950000000000001,-0.45366851797719965,0.003800058462437884,-0.185910552470038
1747152061.363419,0.99796,0.001952,0.125416,-0.14,0.31500000000000006,0.5775,-0.45366851797719965,0.003800058462437884,-0.185910552470038
1747152061.3682916,0.99613,0.000976,0.124318,-0.15750000000000003,0.31500000000000006,0.6300000000000001,-0.45366851797719965,0.003800058462437884,-0.185910552470038
1747152061.3738792,0.997472,0.002196,0.12566,-0.10500000000000001,0.21000000000000002,0.56,-0.45366851797719965,0.003800058462437884,-0.185910552470038
1747152061.3780317,0.9964959999999999,0.001952,0.125172,-0.14,0.29750000000000004,0.6125,-0.45366851797719965,0.003800058462437884,-0.185910552470038
1747152061.382904,0.999058,0.0030499999999999998,0.125782,-0.08750000000000001,0.22750000000000004,0.5950000000000001,-0.4446068401052324,-0.006138555977784273,-0.19877228880444314
1747152061.3877842,0.9977159999999999,0.0023179999999999997,0.124074,-0.0175,0.15750000000000003,0.5775,-0.4446068401052324,-0.006138555977784273,-0.19877228880444314
1747152061.3926497,0.9977159999999999,0.0,0.124318,-0.0175,0.24500000000000002,0.6475000000000001,-0.4446068401052324,-0.006138555977784273,-0.19877228880444314
1747152061.3975236,0.9977159999999999,0.002196,0.124928,0.0,0.2625,0.6475000000000001,-0.4446068401052324,-0.006138555977784273,-0.19877228880444314
1747152061.4024022,0.99674,0.0008539999999999999,0.12261,-0.035,0.22750000000000004,0.5950000000000001,-0.4446068401052324,-0.006138555977784273,-0.19877228880444314
1747152061.407315,0.998448,0.002562,0.125172,-0.0175,0.21000000000000002,0.6475000000000001,-0.4446068401052324,-0.006138555977784273,-0.19877228880444314
1747152061.4121435,0.99796,0.002928,0.12456199999999999,0.0,0.22750000000000004,0.5775,-0.4446068401052324,-0.006138555977784273,-0.19877228880444314
1747152061.4170299,0.997228,0.002074,0.125294,-0.07,0.14,0.56,-0.4446068401052324,-0.006138555977784273,-0.19877228880444314
1747152061.4218886,0.9971059999999999,0.003294,0.125782,-0.0175,0.24500000000000002,0.6300000000000001,-0.4446068401052324,-0.006138555977784273,-0.19877228880444314
1747152061.4274774,0.99918,0.002928,0.125416,-0.10500000000000001,0.24500000000000002,0.6125,-0.4446068401052324,-0.006138555977784273,-0.19877228880444314
1747152061.4316316,0.99674,0.002074,0.125538,-0.035,0.1925,0.5950000000000001,-0.45454545454545453,-0.0005846243788365975,-0.1864951768488746
1747152061.4364984,0.99735,0.000488,0.125294,0.0,0.15750000000000003,0.525,-0.45454545454545453,-0.0005846243788365975,-0.1864951768488746
1747152061.4413707,0.997838,0.000976,0.124928,-0.08750000000000001,0.3325,0.665,-0.45454545454545453,-0.0005846243788365975,-0.1864951768488746
1747152061.446244,0.997838,0.001586,0.12627,-0.14,0.21000000000000002,0.5775,-0.45454545454545453,-0.0005846243788365975,-0.1864951768488746
1747152061.4511158,0.99674,0.003172,0.125416,-0.21000000000000002,0.29750000000000004,0.665,-0.45454545454545453,-0.0005846243788365975,-0.1864951768488746
1747152061.4559886,0.996862,0.00244,0.124928,-0.17500000000000002,0.28,0.5950000000000001,-0.45454545454545453,-0.0005846243788365975,-0.1864951768488746
1747152061.4608586,0.997594,0.002562,0.125294,-0.1925,0.28,0.5775,-0.45454545454545453,-0.0005846243788365975,-0.1864951768488746
1747152061.465731,0.998448,0.002562,0.12627,-0.22750000000000004,0.35000000000000003,0.5950000000000001,-0.45454545454545453,-0.0005846243788365975,-0.1864951768488746
1747152061.4706037,0.9964959999999999,0.000976,0.125294,-0.17500000000000002,0.35000000000000003,0.6125,-0.45454545454545453,-0.0005846243788365975,-0.1864951768488746
1747152061.475477,0.997472,0.000488,0.124928,-0.1925,0.22750000000000004,0.5075000000000001,-0.45454545454545453,-0.0005846243788365975,-0.1864951768488746
1747152061.4810715,0.996984,0.0013419999999999999,0.124318,-0.12250000000000001,0.22750000000000004,0.525,-0.45513007892429114,-0.0035077462730195848,-0.18868751826951183
1747152061.4852192,0.996984,0.0013419999999999999,0.124928,-0.15750000000000003,0.35000000000000003,0.6125,-0.45513007892429114,-0.0035077462730195848,-0.18868751826951183
1747152061.490092,0.997472,0.00183,0.124074,-0.22750000000000004,0.29750000000000004,0.56,-0.45513007892429114,-0.0035077462730195848,-0.18868751826951183
1747152061.4949627,0.997228,0.0008539999999999999,0.126026,-0.14,0.21000000000000002,0.5775,-0.45513007892429114,-0.0035077462730195848,-0.18868751826951183
1747152061.499836,0.996008,0.0017079999999999999,0.12505,-0.17500000000000002,0.28,0.5950000000000001,-0.45513007892429114,-0.0035077462730195848,-0.18868751826951183
1747152061.5047078,0.99735,0.00122,0.12566,-0.14,0.21000000000000002,0.5775,-0.45513007892429114,-0.0035077462730195848,-0.18868751826951183
1747152061.5095778,0.996374,0.000976,0.125172,-0.08750000000000001,0.17500000000000002,0.56,-0.45513007892429114,-0.0035077462730195848,-0.18868751826951183
1747152061.5144498,0.996984,0.003294,0.12688,-0.035,0.2625,0.5950000000000001,-0.45513007892429114,-0.0035077462730195848,-0.18868751826951183
1747152061.5193248,0.999302,0.0023179999999999997,0.125538,-0.0175,0.22750000000000004,0.6475000000000001,-0.45513007892429114,-0.0035077462730195848,-0.18868751826951183
1747152061.5241926,0.998082,0.0013419999999999999,0.12444,0.0175,0.21000000000000002,0.5775,-0.4539608301666179,0.0035077462730195848,-0.18971061093247588
1747152061.5290675,0.9971059999999999,0.000976,0.12444,-0.035,0.12250000000000001,0.5075000000000001,-0.4539608301666179,0.0035077462730195848,-0.18971061093247588
1747152061.5346627,0.99735,0.003172,0.12505,0.0175,0.15750000000000003,0.56,-0.4539608301666179,0.0035077462730195848,-0.18971061093247588
1747152061.5388136,0.996618,0.0013419999999999999,0.125416,-0.052500000000000005,0.15750000000000003,0.6300000000000001,-0.4539608301666179,0.0035077462730195848,-0.18971061093247588
1747152061.5436857,0.996618,0.000732,0.124928,0.052500000000000005,0.1925,0.5950000000000001,-0.4539608301666179,0.0035077462730195848,-0.18971061093247588
1747152061.5485573,0.998448,0.00183,0.127612,-0.052500000000000005,0.22750000000000004,0.5950000000000001,-0.4539608301666179,0.0035077462730195848,-0.18971061093247588
1747152061.5534246,0.9971059999999999,0.0,0.126758,-0.10500000000000001,0.22750000000000004,0.5950000000000001,-0.4539608301666179,0.0035077462730195848,-0.18971061093247588
1747152061.5582988,0.997228,0.00183,0.126026,-0.08750000000000001,0.24500000000000002,0.56,-0.4539608301666179,0.0035077462730195848,-0.18971061093247588
1747152061.563177,0.997838,0.002562,0.125172,-0.14,0.28,0.56,-0.4539608301666179,0.0035077462730195848,-0.18971061093247588
1747152061.5680473,0.9977159999999999,0.002562,0.124196,-0.15750000000000003,0.28,0.6125,-0.4539608301666179,0.0035077462730195848,-0.18971061093247588
1747152061.5729144,0.99796,0.0026839999999999998,0.123098,-0.1925,0.24500000000000002,0.6300000000000001,-0.45366851797719965,-0.005553931598947676,-0.18868751826951183
1747152061.5777838,0.997838,0.0013419999999999999,0.124684,-0.24500000000000002,0.29750000000000004,0.6300000000000001,-0.45366851797719965,-0.005553931598947676,-0.18868751826951183
1747152061.5826597,0.9964959999999999,0.001098,0.125538,-0.17500000000000002,0.28,0.5425000000000001,-0.45366851797719965,-0.005553931598947676,-0.18868751826951183
1747152061.5882652,0.997594,-0.000244,0.12456199999999999,-0.1925,0.29750000000000004,0.5950000000000001,-0.45366851797719965,-0.005553931598947676,-0.18868751826951183
1747152061.5923994,0.997594,-0.000244,0.12456199999999999,-0.1925,0.3325,0.56,-0.45366851797719965,-0.005553931598947676,-0.18868751826951183
1747152061.5972714,0.99674,0.002928,0.094306,-0.17500000000000002,0.29750000000000004,0.5775,-0.45366851797719965,-0.005553931598947676,-0.18868751826951183
1747152061.6021419,0.99613,0.002196,0.126514,-0.22750000000000004,0.35000000000000003,0.6475000000000001,-0.45366851797719965,-0.005553931598947676,-0.18868751826951183
1747152061.6070144,0.998692,0.001952,0.123342,-0.24500000000000002,0.4025,0.6125,-0.45366851797719965,-0.005553931598947676,-0.18868751826951183
1747152061.6118855,0.9977159999999999,0.003294,0.126026,-0.24500000000000002,0.35000000000000003,0.6475000000000001,-0.45366851797719965,-0.005553931598947676,-0.18868751826951183
1747152061.616755,0.998204,-0.000488,0.124318,-0.21000000000000002,0.31500000000000006,0.56,-0.45366851797719965,-0.00935399006138556,-0.18971061093247588
1747152061.6216261,0.998448,0.0017079999999999999,0.123098,-0.21000000000000002,0.2625,0.525,-0.45922244957614733,-0.00935399006138556,-0.18971061093247588
1747152061.6264966,0.997472,0.003904,0.125416,-0.10500000000000001,0.36750000000000005,0.6125,-0.45922244957614733,-0.00935399006138556,-0.18971061093247588
1747152061.6313705,0.998082,-0.000732,0.124318,-0.14,0.31500000000000006,0.5950000000000001,-0.45922244957614733,-0.00935399006138556,-0.18971061093247588
1747152061.6362388,0.998448,0.001952,0.125538,-0.1925,0.28,0.6300000000000001,-0.45922244957614733,-0.00935399006138556,-0.18971061093247588
1747152061.6418252,0.997472,0.00183,0.124684,-0.15750000000000003,0.29750000000000004,0.56,-0.45922244957614733,-0.00935399006138556,-0.18971061093247588
1747152061.6459816,0.996862,0.002806,0.125416,-0.15750000000000003,0.31500000000000006,0.56,-0.45922244957614733,-0.00935399006138556,-0.18971061093247588
1747152061.6508524,0.995398,0.002928,0.12444,-0.21000000000000002,0.2625,0.5425000000000001,-0.45922244957614733,-0.00935399006138556,-0.18971061093247588
1747152061.6557245,0.996618,0.002562,0.12566,-0.10500000000000001,0.28,0.56,-0.45922244957614733,-0.00935399006138556,-0.18971061093247588
1747152061.660601,0.99735,0.002806,0.124684,-0.12250000000000001,0.24500000000000002,0.5775,-0.45922244957614733,-0.00935399006138556,-0.18971061093247588
1747152061.6654732,0.99796,0.003294,0.125904,-0.10500000000000001,0.24500000000000002,0.5775,-0.4519146448406899,-0.0070154925460391695,-0.19321835720549546
1747152061.6703472,1.000034,0.0,0.125538,-0.12250000000000001,0.15750000000000003,0.525,-0.4519146448406899,-0.0070154925460391695,-0.19321835720549546
1747152061.6752203,0.998204,0.00244,0.12505,-0.08750000000000001,0.22750000000000004,0.6300000000000001,-0.4519146448406899,-0.0070154925460391695,-0.19321835720549546
1747152061.6800957,0.9983259999999999,0.00183,0.125904,0.052500000000000005,0.17500000000000002,0.6125,-0.4519146448406899,-0.0070154925460391695,-0.19321835720549546
1747152061.684963,0.997228,0.0030499999999999998,0.126026,0.035,0.22750000000000004,0.5950000000000001,-0.4519146448406899,-0.0070154925460391695,-0.19321835720549546
1747152061.6898422,0.99674,0.00244,0.127124,-0.052500000000000005,0.21000000000000002,0.5775,-0.4519146448406899,-0.0070154925460391695,-0.19321835720549546
1747152061.69543,0.997838,0.00122,0.12505,-0.035,0.24500000000000002,0.6125,-0.4519146448406899,-0.0070154925460391695,-0.19321835720549546
1747152061.6995804,0.997472,0.00244,0.127978,-0.035,0.15750000000000003,0.56,-0.4519146448406899,-0.0070154925460391695,-0.19321835720549546
1747152061.7044516,0.996618,0.000488,0.12505,0.0,0.21000000000000002,0.6125,-0.4519146448406899,-0.0070154925460391695,-0.19321835720549546
1747152061.7093253,0.998814,0.00122,0.125294,-0.035,0.17500000000000002,0.5775,-0.4519146448406899,-0.0070154925460391695,-0.19321835720549546
1747152061.7141979,0.998448,0.00244,0.094916,-0.052500000000000005,0.17500000000000002,0.5425000000000001,-0.45571470330312774,-0.00029231218941829873,-0.18254896229172757
1747152061.7190688,0.997838,0.0023179999999999997,0.124318,-0.14,0.35000000000000003,0.6475000000000001,-0.45571470330312774,-0.00029231218941829873,-0.18254896229172757
1747152061.7239625,0.997838,0.004148,0.124318,-0.15750000000000003,0.2625,0.5775,-0.45571470330312774,-0.00029231218941829873,-0.18254896229172757
1747152061.728817,0.99735,0.001464,0.124928,-0.12250000000000001,0.35000000000000003,0.5775,-0.45571470330312774,-0.00029231218941829873,-0.18254896229172757
1747152061.733685,1.000278,0.003538,0.126026,-0.17500000000000002,0.28,0.6125,-0.45571470330312774,-0.00029231218941829873,-0.18254896229172757
1747152061.738558,0.997838,0.001952,0.123586,-0.24500000000000002,0.35000000000000003,0.5950000000000001,-0.45571470330312774,-0.00029231218941829873,-0.18254896229172757
1747152061.7434335,0.99796,0.0026839999999999998,0.125904,-0.1925,0.35000000000000003,0.56,-0.45571470330312774,-0.00029231218941829873,-0.18254896229172757
1747152061.7490282,0.99857,0.00122,0.12505,-0.22750000000000004,0.35000000000000003,0.6125,-0.45571470330312774,-0.00029231218941829873,-0.18254896229172757
1747152061.7531688,0.9989359999999999,0.001952,0.124196,-0.14,0.31500000000000006,0.5950000000000001,-0.45571470330312774,-0.00029231218941829873,-0.18254896229172757
1747152061.7580388,0.99796,0.001952,0.125782,-0.22750000000000004,0.3325,0.5775,-0.4574685764396375,-0.0043846828412744815,-0.185910552470038
1747152061.7629113,0.996252,0.0008539999999999999,0.124196,-0.21000000000000002,0.31500000000000006,0.5075000000000001,-0.4574685764396375,-0.0043846828412744815,-0.185910552470038
1747152061.7677813,0.998082,0.002074,0.125172,-0.21000000000000002,0.385,0.6300000000000001,-0.4574685764396375,-0.0043846828412744815,-0.185910552470038
1747152061.7726562,0.9958859999999999,0.002196,0.126148,-0.22750000000000004,0.3325,0.56,-0.4574685764396375,-0.0043846828412744815,-0.185910552470038
1747152061.777535,0.996984,0.0013419999999999999,0.12688,-0.24500000000000002,0.29750000000000004,0.6300000000000001,-0.4574685764396375,-0.0043846828412744815,-0.185910552470038
1747152061.782403,0.999912,0.002928,0.124196,-0.17500000000000002,0.35000000000000003,0.6125,-0.4574685764396375,-0.0043846828412744815,-0.185910552470038
1747152061.7872856,0.9964959999999999,0.0013419999999999999,0.124196,0.0,0.21000000000000002,0.5775,-0.4574685764396375,-0.0043846828412744815,-0.185910552470038
1747152061.7921546,0.996862,0.0023179999999999997,0.124928,0.0175,0.22750000000000004,0.5775,-0.4574685764396375,-0.0043846828412744815,-0.185910552470038
1747152061.7970386,0.997594,0.0013419999999999999,0.124196,0.052500000000000005,0.15750000000000003,0.6300000000000001,-0.4574685764396375,-0.0043846828412744815,-0.185910552470038
1747152061.802625,0.99918,0.00244,0.12456199999999999,-0.10500000000000001,0.24500000000000002,0.6125,-0.4574685764396375,-0.0043846828412744815,-0.185910552470038
1747152061.8067641,0.9971059999999999,0.001464,0.123708,-0.10500000000000001,0.24500000000000002,0.6125,-0.45542239111370947,-0.00029231218941829873,-0.18810289389067525
1747152061.8116388,0.99796,0.00488,0.126758,-0.0175,0.12250000000000001,0.5950000000000001,-0.45542239111370947,-0.00029231218941829873,-0.18810289389067525
1747152061.816506,0.997594,0.001586,0.12322,4.4625,0.10500000000000001,0.6300000000000001,-0.45542239111370947,-0.00029231218941829873,-0.18810289389067525
1747152061.821377,0.9977159999999999,0.003538,0.125904,-0.0175,0.21000000000000002,0.6125,-0.45542239111370947,-0.00029231218941829873,-0.18810289389067525
1747152061.8262484,0.9977159999999999,0.002196,0.12395199999999999,0.0,0.15750000000000003,0.56,-0.45542239111370947,-0.00029231218941829873,-0.18810289389067525
1747152061.83112,0.9971059999999999,0.003538,0.122732,0.0175,0.1925,0.5775,-0.45542239111370947,-0.00029231218941829873,-0.18810289389067525
1747152061.8359947,0.997838,0.002806,0.123586,-0.0175,0.24500000000000002,0.5950000000000001,-0.45542239111370947,-0.00029231218941829873,-0.18810289389067525
1747152061.840862,0.9964959999999999,0.00549,0.12627,-0.08750000000000001,0.28,0.5775,-0.45542239111370947,-0.00029231218941829873,-0.18810289389067525
1747152061.845735,0.99857,0.003904,0.125538,-0.052500000000000005,0.2625,0.5775,-0.45542239111370947,-0.00029231218941829873,-0.18810289389067525
1747152061.850609,0.9977159999999999,0.0008539999999999999,0.12322,-0.052500000000000005,0.17500000000000002,0.5775,-0.45542239111370947,-0.00029231218941829873,-0.1853259280912014
1747152061.8561928,0.998082,0.0023179999999999997,0.123098,-0.10500000000000001,0.15750000000000003,0.45500000000000007,-0.45688395206080096,-0.00467699503069278,-0.1853259280912014
1747152061.860346,0.99857,0.002196,0.124806,-0.0175,0.31500000000000006,0.665,-0.45688395206080096,-0.00467699503069278,-0.1853259280912014
1747152061.8652198,0.9983259999999999,0.002196,0.12505,0.0,0.21000000000000002,0.665,-0.45688395206080096,-0.00467699503069278,-0.1853259280912014
1747152061.8700964,0.997594,0.003172,0.12456199999999999,-0.17500000000000002,0.28,0.56,-0.45688395206080096,-0.00467699503069278,-0.1853259280912014
1747152061.8749735,0.997228,0.0013419999999999999,0.124684,-0.1925,0.28,0.56,-0.45688395206080096,-0.00467699503069278,-0.1853259280912014
1747152061.879844,0.998204,0.0023179999999999997,0.12505,-0.2625,0.29750000000000004,0.5950000000000001,-0.45688395206080096,-0.00467699503069278,-0.1853259280912014
1747152061.884711,0.99674,0.000366,0.125416,-0.2625,0.36750000000000005,0.6475000000000001,-0.45688395206080096,-0.00467699503069278,-0.1853259280912014
1747152061.8895805,0.998082,0.001464,0.124928,-0.2625,0.36750000000000005,0.6125,-0.45688395206080096,-0.00467699503069278,-0.1853259280912014
1747152061.8944538,0.99796,0.0023179999999999997,0.12444,-0.24500000000000002,0.35000000000000003,0.6125,-0.45688395206080096,-0.00467699503069278,-0.1853259280912014
1747152061.8993254,0.997228,0.003172,0.12566,-0.17500000000000002,0.31500000000000006,0.56,-0.46039169833382054,-0.006723180356620871,-0.18079508915521778
1747152061.904199,0.997472,0.003172,0.126148,-0.15750000000000003,0.24500000000000002,0.525,-0.46039169833382054,-0.006723180356620871,-0.18079508915521778
1747152061.9097967,0.996374,0.003538,0.125538,-0.22750000000000004,0.4025,0.6300000000000001,-0.46039169833382054,-0.006723180356620871,-0.18079508915521778
1747152061.913944,0.9971059999999999,0.003294,0.12395199999999999,-0.15750000000000003,0.3325,0.6300000000000001,-0.46039169833382054,-0.006723180356620871,-0.18079508915521778
1747152061.918818,0.99796,0.00244,0.125294,-0.1925,0.28,0.5950000000000001,-0.46039169833382054,-0.006723180356620871,-0.18079508915521778
1747152061.9236884,0.998082,0.001586,0.12566,-0.052500000000000005,0.22750000000000004,0.5950000000000001,-0.46039169833382054,-0.006723180356620871,-0.18079508915521778
1747152061.9285555,0.998448,0.001586,0.124806,0.0,0.21000000000000002,0.5950000000000001,-0.46039169833382054,-0.006723180356620871,-0.18079508915521778
1747152061.9334283,0.9977159999999999,0.002562,0.124684,-0.035,0.21000000000000002,0.5775,-0.46039169833382054,-0.006723180356620871,-0.18079508915521778
1747152061.9383,0.9983259999999999,0.002806,0.12688,0.0175,0.21000000000000002,0.5950000000000001,-0.46039169833382054,-0.006723180356620871,-0.18079508915521778
1747152061.943177,0.9958859999999999,0.00061,0.123342,-0.0175,0.21000000000000002,0.6125,-0.46039169833382054,-0.006723180356620871,-0.18079508915521778
1747152061.9480479,0.9977159999999999,0.003172,0.126392,-0.0175,0.15750000000000003,0.5775,-0.4513300204618533,0.001169248757673195,-0.18985676702718504
1747152061.9529152,0.9989359999999999,0.0023179999999999997,0.123098,0.07,0.21000000000000002,0.6300000000000001,-0.4513300204618533,0.001169248757673195,-0.18985676702718504
1747152061.9577913,0.9964959999999999,0.0017079999999999999,0.125904,-0.052500000000000005,0.2625,0.6125,-0.4513300204618533,0.001169248757673195,-0.18985676702718504
1747152061.963404,0.99857,0.0023179999999999997,0.125538,-0.07,0.1925,0.56,-0.4513300204618533,0.001169248757673195,-0.18985676702718504
1747152061.967532,0.9977159999999999,0.002562,0.12322,-0.14,0.22750000000000004,0.5775,-0.4513300204618533,0.001169248757673195,-0.18985676702718504
1747152061.972404,0.996984,0.0026839999999999998,0.124806,-0.07,0.21000000000000002,0.56,-0.4513300204618533,0.001169248757673195,-0.18985676702718504
1747152061.9772797,0.998204,0.0023179999999999997,0.12566,-0.07,0.22750000000000004,0.6300000000000001,-0.4513300204618533,0.001169248757673195,-0.18985676702718504
1747152061.9821522,0.9964959999999999,0.0013419999999999999,0.124074,-0.10500000000000001,0.24500000000000002,0.5950000000000001,-0.4513300204618533,0.001169248757673195,-0.18985676702718504
1747152061.9870224,0.996862,0.001098,0.12627,-0.12250000000000001,0.29750000000000004,0.5775,-0.4513300204618533,0.001169248757673195,-0.18985676702718504
1747152061.9918976,0.998692,0.001586,0.124074,-0.17500000000000002,0.2625,0.5950000000000001,-0.4484068985676703,-0.002630809704764689,-0.1826951183864367
1747152061.996768,0.99857,0.00183,0.124318,-0.21000000000000002,0.21000000000000002,0.5775,-0.4484068985676703,-0.002630809704764689,-0.1826951183864367
1747152062.001637,0.997838,0.00122,0.124684,-0.17500000000000002,0.2625,0.6300000000000001,-0.4484068985676703,-0.002630809704764689,-0.1826951183864367
1747152062.0065093,0.996252,0.000976,0.12444,-0.14,0.22750000000000004,0.5775,-0.4484068985676703,-0.002630809704764689,-0.1826951183864367
1747152062.0113826,1.0004,0.0013419999999999999,0.12456199999999999,-0.14,0.28,0.56,-0.4484068985676703,-0.002630809704764689,-0.1826951183864367
1747152062.016967,0.999424,0.0017079999999999999,0.12456199999999999,-0.14,0.31500000000000006,0.5775,-0.4484068985676703,-0.002630809704764689,-0.1826951183864367
1747152062.0211222,0.999058,-0.000366,0.124196,-0.052500000000000005,0.24500000000000002,0.5950000000000001,-0.4484068985676703,-0.002630809704764689,-0.1826951183864367
1747152062.0259943,0.99857,0.00183,0.125294,-0.0175,0.2625,0.5775,-0.4484068985676703,-0.002630809704764689,-0.1826951183864367
1747152062.0308628,0.995764,0.00122,0.124196,-0.14,0.21000000000000002,0.6125,-0.4484068985676703,-0.002630809704764689,-0.1826951183864367
1747152062.0357325,0.998692,0.0030499999999999998,0.12395199999999999,-0.21000000000000002,0.29750000000000004,0.6125,-0.4484068985676703,-0.002630809704764689,-0.1826951183864367
1747152062.0406067,0.9989359999999999,0.00122,0.125172,-0.1925,0.31500000000000006,0.5950000000000001,-0.45074539608301667,-0.0040923706518561824,-0.18547208418591055
1747152062.0454843,0.997594,0.001586,0.12456199999999999,-0.14,0.28,0.6300000000000001,-0.45074539608301667,-0.0040923706518561824,-0.18547208418591055
1747152062.0503538,0.998082,0.001098,0.124928,-0.08750000000000001,0.21000000000000002,0.5950000000000001,-0.45074539608301667,-0.0040923706518561824,-0.18547208418591055
1747152062.0552297,0.997594,0.001952,0.124928,-0.08750000000000001,0.28,0.5775,-0.45074539608301667,-0.0040923706518561824,-0.18547208418591055
1747152062.0600996,0.99735,-0.001464,0.09406199999999999,-0.052500000000000005,0.15750000000000003,0.5775,-0.45074539608301667,-0.0040923706518561824,-0.18547208418591055
1747152062.06497,0.99613,0.002562,0.12505,-0.10500000000000001,0.1925,0.6125,-0.45074539608301667,-0.0040923706518561824,-0.18547208418591055
1747152062.070556,0.997472,0.001464,0.125782,-0.15750000000000003,0.21000000000000002,0.6125,-0.45074539608301667,-0.0040923706518561824,-0.18547208418591055
1747152062.074722,0.996374,0.0017079999999999999,0.123464,-0.15750000000000003,0.28,0.6125,-0.45074539608301667,-0.0040923706518561824,-0.18547208418591055
1747152062.0795898,0.997594,0.001098,0.12163399999999999,0.0,0.12250000000000001,0.5950000000000001,-0.45074539608301667,-0.0040923706518561824,-0.18547208418591055
1747152062.0844612,0.9995459999999999,0.0023179999999999997,0.123586,-0.0175,0.12250000000000001,0.6475000000000001,-0.45074539608301667,-0.0040923706518561824,-0.18547208418591055
1747152062.0893292,0.997228,0.001098,0.123708,0.035,0.052500000000000005,0.525,-0.4533762057877814,-0.006430868167202572,-0.17714118678748902
1747152062.0942037,0.997228,0.0034159999999999998,0.12627,0.052500000000000005,0.1925,0.6475000000000001,-0.4533762057877814,-0.006430868167202572,-0.17714118678748902
1747152062.0990727,0.997228,0.000366,0.126392,-0.07,0.1925,0.5950000000000001,-0.4533762057877814,-0.006430868167202572,-0.17714118678748902
1747152062.103947,0.99857,0.0013419999999999999,0.127734,0.0175,0.21000000000000002,0.6125,-0.4533762057877814,-0.006430868167202572,-0.17714118678748902
1747152062.1088192,0.997228,0.00244,0.12456199999999999,0.0175,0.21000000000000002,0.5775,-0.4533762057877814,-0.006430868167202572,-0.17714118678748902
1747152062.1136878,0.999668,0.001098,0.126026,-0.08750000000000001,0.1925,0.49000000000000005,-0.4533762057877814,-0.006430868167202572,-0.17714118678748902
1747152062.1185637,0.997838,0.002196,0.125538,-0.0175,0.3325,0.6825000000000001,-0.4533762057877814,-0.006430868167202572,-0.17714118678748902
1747152062.1241484,0.9977159999999999,0.0017079999999999999,0.126026,0.0,0.17500000000000002,0.56,-0.4533762057877814,-0.006430868167202572,-0.17714118678748902
1747152062.1283004,0.999058,0.0034159999999999998,0.12444,-0.052500000000000005,0.22750000000000004,0.6300000000000001,-0.4533762057877814,-0.006430868167202572,-0.17714118678748902
1747152062.1331708,0.99796,0.0026839999999999998,0.12285399999999999,0.0175,0.28,0.5950000000000001,-0.45717626425021923,0.0005846243788365975,-0.17655656240865245
1747152062.1380413,0.997228,0.001098,0.125172,-0.14,0.22750000000000004,0.5425000000000001,-0.45717626425021923,0.0005846243788365975,-0.17655656240865245
1747152062.1429143,0.9995459999999999,0.0013419999999999999,0.124196,-0.15750000000000003,0.2625,0.6300000000000001,-0.45717626425021923,0.0005846243788365975,-0.17655656240865245
1747152062.1477876,0.996984,0.00366,0.124318,-0.052500000000000005,0.2625,0.5950000000000001,-0.45717626425021923,0.0005846243788365975,-0.17655656240865245
1747152062.1526668,0.998082,0.003538,0.126392,-0.10500000000000001,0.21000000000000002,0.5950000000000001,-0.45717626425021923,0.0005846243788365975,-0.17655656240865245
1747152062.1575341,0.998814,0.00122,0.126026,-0.21000000000000002,0.1925,0.6475000000000001,-0.45717626425021923,0.0005846243788365975,-0.17655656240865245
1747152062.1624095,0.99674,0.0013419999999999999,0.124684,-0.22750000000000004,0.29750000000000004,0.6125,-0.45717626425021923,0.0005846243788365975,-0.17655656240865245
1747152062.167283,0.997594,0.000366,0.125294,-0.21000000000000002,0.2625,0.5950000000000001,-0.45717626425021923,0.0005846243788365975,-0.17655656240865245
1747152062.1721528,0.997838,0.00366,0.125172,-0.17500000000000002,0.31500000000000006,0.6125,-0.45717626425021923,0.0005846243788365975,-0.17655656240865245
1747152062.1777506,0.999058,0.002074,0.125294,-0.21000000000000002,0.3325,0.6125,-0.45717626425021923,0.0005846243788365975,-0.17655656240865245
1747152062.1819186,0.999058,0.002074,0.12505,-0.22750000000000004,0.22750000000000004,0.49000000000000005,-0.4565916398713826,-0.0043846828412744815,-0.18225665010230926
1747152062.1867678,0.997228,0.0013419999999999999,0.125416,0.0,0.29750000000000004,0.6475000000000001,-0.4565916398713826,-0.0043846828412744815,-0.18225665010230926
1747152062.1916385,0.998814,0.001586,0.125294,-0.14,0.29750000000000004,0.6125,-0.4565916398713826,-0.0043846828412744815,-0.18225665010230926
1747152062.1965063,0.998692,0.000122,0.124806,-0.14,0.28,0.5950000000000001,-0.4565916398713826,-0.0043846828412744815,-0.18225665010230926
1747152062.2013795,0.998814,0.0008539999999999999,0.12383,-0.12250000000000001,0.35000000000000003,0.5775,-0.4565916398713826,-0.0043846828412744815,-0.18225665010230926
1747152062.2062519,0.996862,0.001952,0.125416,-0.15750000000000003,0.31500000000000006,0.5950000000000001,-0.4565916398713826,-0.0043846828412744815,-0.18225665010230926
1747152062.211125,0.99552,0.0026839999999999998,0.125782,-0.052500000000000005,0.24500000000000002,0.6300000000000001,-0.4565916398713826,-0.0043846828412744815,-0.18225665010230926
1747152062.215998,0.996984,0.0026839999999999998,0.12627,-0.07,0.24500000000000002,0.5950000000000001,-0.4565916398713826,-0.0043846828412744815,-0.18225665010230926
1747152062.2208648,0.997594,0.003294,0.12456199999999999,-0.035,0.2625,0.6125,-0.4565916398713826,-0.0043846828412744815,-0.18225665010230926
1747152062.225736,0.997472,0.00122,0.125294,-0.08750000000000001,0.17500000000000002,0.525,-0.45834551300789245,-0.008769365682548963,-0.19234142063724058
1747152062.231349,0.999302,0.002806,0.125294,-0.052500000000000005,0.15750000000000003,0.525,-0.45834551300789245,-0.008769365682548963,-0.19234142063724058
1747152062.2354772,0.99918,0.00122,0.12395199999999999,-0.10500000000000001,0.28,0.665,-0.45834551300789245,-0.008769365682548963,-0.19234142063724058
1747152062.2403462,0.997472,0.0017079999999999999,0.12383,0.0175,0.14,0.5950000000000001,-0.45834551300789245,-0.008769365682548963,-0.19234142063724058
1747152062.2452154,0.99857,0.002928,0.125416,0.0175,0.1925,0.5950000000000001,-0.45834551300789245,-0.008769365682548963,-0.19234142063724058
1747152062.2500908,0.997838,0.000488,0.12395199999999999,0.035,0.1925,0.6125,-0.45834551300789245,-0.008769365682548963,-0.19234142063724058
1747152062.2549653,0.998814,0.0013419999999999999,0.125172,0.035,0.1925,0.5950000000000001,-0.45834551300789245,-0.008769365682548963,-0.19234142063724058
1747152062.2598355,0.9977159999999999,0.0030499999999999998,0.12395199999999999,-0.035,0.21000000000000002,0.6125,-0.45834551300789245,-0.008769365682548963,-0.19234142063724058
1747152062.2647028,0.998814,0.0017079999999999999,0.125172,0.035,0.1925,0.5425000000000001,-0.45834551300789245,-0.008769365682548963,-0.19234142063724058
1747152062.2695875,0.99735,0.0030499999999999998,0.12627,0.07,0.1925,0.6300000000000001,-0.45834551300789245,-0.008769365682548963,-0.19234142063724058
1747152062.2744544,0.997472,0.002196,0.125294,0.0175,0.1925,0.49000000000000005,-0.44899152294650685,-0.0005846243788365975,-0.1870798012277112
1747152062.2793303,0.996618,0.001464,0.124074,-0.08750000000000001,0.1925,0.5425000000000001,-0.44899152294650685,-0.0005846243788365975,-0.1870798012277112
1747152062.2849143,0.9977159999999999,0.00244,0.12456199999999999,-0.12250000000000001,0.2625,0.56,-0.44899152294650685,-0.0005846243788365975,-0.1870798012277112
1747152062.289068,0.99674,0.00244,0.12456199999999999,-0.035,0.2625,0.6125,-0.44899152294650685,-0.0005846243788365975,-0.1870798012277112
1747152062.2939427,0.99735,0.00244,0.125538,-0.07,0.29750000000000004,0.6825000000000001,-0.44899152294650685,-0.0005846243788365975,-0.1870798012277112
1747152062.2988098,0.998204,0.002806,0.124318,-0.17500000000000002,0.08750000000000001,0.49000000000000005,-0.44899152294650685,-0.0005846243788365975,-0.1870798012277112
1747152062.30368,0.9964959999999999,0.00122,0.123708,-0.10500000000000001,0.2625,0.56,-0.44899152294650685,-0.0005846243788365975,-0.1870798012277112
1747152062.3085527,0.9983259999999999,0.00122,0.125172,-0.14,0.1925,0.6125,-0.44899152294650685,-0.0005846243788365975,-0.1870798012277112
1747152062.3134212,0.9977159999999999,0.00122,0.12627,-0.15750000000000003,0.29750000000000004,0.665,-0.44899152294650685,-0.0005846243788365975,-0.1870798012277112
1747152062.318291,0.997594,0.002074,0.124196,-0.12250000000000001,0.24500000000000002,0.525,-0.44899152294650685,-0.0005846243788365975,-0.1870798012277112
1747152062.3231685,0.99857,0.0026839999999999998,0.12566,-0.21000000000000002,0.22750000000000004,0.5775,-0.45016077170418006,0.007307804735457469,-0.18971061093247588
1747152062.3280377,0.998814,0.000244,0.125538,-0.21000000000000002,0.35000000000000003,0.7000000000000001,-0.45016077170418006,0.007307804735457469,-0.18971061093247588
1747152062.3329084,0.996374,0.002196,0.12566,-0.17500000000000002,0.3325,0.6125,-0.45016077170418006,0.007307804735457469,-0.18971061093247588
1747152062.3384929,0.9977159999999999,0.002196,0.123708,-0.2625,0.31500000000000006,0.6475000000000001,-0.45016077170418006,0.007307804735457469,-0.18971061093247588
1747152062.3426514,0.999424,0.0008539999999999999,0.124318,-0.15750000000000003,0.31500000000000006,0.6300000000000001,-0.45016077170418006,0.007307804735457469,-0.18971061093247588
1747152062.347522,0.9971059999999999,0.0008539999999999999,0.124684,-0.12250000000000001,0.22750000000000004,0.6125,-0.45016077170418006,0.007307804735457469,-0.18971061093247588
1747152062.3523912,0.996862,0.002074,0.121512,-0.1925,0.29750000000000004,0.6475000000000001,-0.45016077170418006,0.007307804735457469,-0.18971061093247588
1747152062.3572643,0.996862,0.001464,0.124074,-0.1925,0.28,0.5950000000000001,-0.45016077170418006,0.007307804735457469,-0.18971061093247588
1747152062.362138,0.9983259999999999,0.00122,0.124074,-0.17500000000000002,0.4025,0.665,-0.45016077170418006,0.007307804735457469,-0.18971061093247588
1747152062.367018,0.996252,0.000244,0.125416,-0.10500000000000001,0.3325,0.56,-0.44957614732534346,-0.003800058462437884,-0.1891259865536393
1747152062.3718853,0.9964959999999999,0.002074,0.12566,-0.17500000000000002,0.1925,0.49000000000000005,-0.44957614732534346,-0.003800058462437884,-0.1891259865536393
1747152062.3767486,0.9977159999999999,0.00122,0.124196,-0.12250000000000001,0.21000000000000002,0.7000000000000001,-0.44957614732534346,-0.003800058462437884,-0.1891259865536393
1747152062.3816297,0.997594,0.001464,0.125538,-0.10500000000000001,0.2625,0.665,-0.44957614732534346,-0.003800058462437884,-0.1891259865536393
1747152062.3865073,0.997472,0.001586,0.12505,-0.12250000000000001,0.22750000000000004,0.6300000000000001,-0.44957614732534346,-0.003800058462437884,-0.1891259865536393
1747152062.392096,0.998204,0.002928,0.15555,0.0175,0.22750000000000004,0.6300000000000001,-0.44957614732534346,-0.003800058462437884,-0.1891259865536393
1747152062.3962395,0.9977159999999999,0.004148,0.125172,-4.4625,0.17500000000000002,0.5950000000000001,-0.44957614732534346,-0.003800058462437884,-0.1891259865536393
1747152062.401113,0.996252,0.003172,0.12383,0.0,0.15750000000000003,0.5950000000000001,-0.44957614732534346,-0.003800058462437884,-0.1891259865536393
1747152062.405987,0.998082,0.00122,0.124074,-0.035,0.17500000000000002,0.6475000000000001,-0.44957614732534346,-0.003800058462437884,-0.1891259865536393
1747152062.410857,0.9983259999999999,0.000732,0.123464,-0.035,0.17500000000000002,0.6125,-0.44957614732534346,-0.003800058462437884,-0.1891259865536393
1747152062.4157312,0.997472,0.001464,0.124928,0.0,0.15750000000000003,0.5075000000000001,-0.4478222741888337,-0.003215434083601286,-0.19643379128909674
1747152062.420601,0.996984,0.003538,0.12383,0.0175,0.1925,0.6300000000000001,-0.4478222741888337,-0.003215434083601286,-0.19643379128909674
1747152062.4254727,0.996252,0.0017079999999999999,0.12505,-0.035,0.22750000000000004,0.5775,-0.4478222741888337,-0.003215434083601286,-0.19643379128909674
1747152062.4303434,0.9989359999999999,0.0046359999999999995,0.124928,-0.0175,0.24500000000000002,0.5425000000000001,-0.4478222741888337,-0.003215434083601286,-0.19643379128909674
1747152062.4352155,0.996252,0.0017079999999999999,0.124074,-0.0175,0.17500000000000002,0.56,-0.4478222741888337,-0.003215434083601286,-0.19643379128909674
1747152062.4400897,0.9983259999999999,0.002074,0.126636,-0.035,0.1925,0.6125,-0.4478222741888337,-0.003215434083601286,-0.19643379128909674
1747152062.4456954,0.996618,0.001952,0.12395199999999999,-0.0175,0.2625,0.6475000000000001,-0.4478222741888337,-0.003215434083601286,-0.19643379128909674
1747152062.4498298,0.997594,0.002074,0.125782,-0.035,0.29750000000000004,0.6125,-0.4478222741888337,-0.003215434083601286,-0.19643379128909674
1747152062.454703,0.999424,0.0034159999999999998,0.125538,-0.08750000000000001,0.2625,0.6125,-0.4478222741888337,-0.003215434083601286,-0.19643379128909674
1747152062.459578,0.9989359999999999,0.0030499999999999998,0.127124,-0.08750000000000001,0.28,0.5775,-0.4478222741888337,0.002630809704764689,-0.19117217187956737
1747152062.4644444,0.9977159999999999,0.00122,0.124806,-0.14,0.15750000000000003,0.5775,-0.4519146448406899,0.002630809704764689,-0.19117217187956737
1747152062.4693182,0.99796,0.0034159999999999998,0.124074,-0.1925,0.35000000000000003,0.6825000000000001,-0.4519146448406899,0.002630809704764689,-0.19117217187956737
1747152062.4741895,0.999302,0.0008539999999999999,0.123342,-0.17500000000000002,0.31500000000000006,0.5775,-0.4519146448406899,0.002630809704764689,-0.19117217187956737
1747152062.479063,0.99918,0.00183,0.124074,-0.24500000000000002,0.29750000000000004,0.5950000000000001,-0.4519146448406899,0.002630809704764689,-0.19117217187956737
1747152062.483935,0.997838,0.002562,0.124928,-0.22750000000000004,0.35000000000000003,0.56,-0.4519146448406899,0.002630809704764689,-0.19117217187956737
1747152062.488808,0.9977159999999999,0.0026839999999999998,0.125782,-0.22750000000000004,0.31500000000000006,0.56,-0.4519146448406899,0.002630809704764689,-0.19117217187956737
1747152062.4936807,0.998692,0.002074,0.124928,-0.21000000000000002,0.35000000000000003,0.5775,-0.4519146448406899,0.002630809704764689,-0.19117217187956737
1747152062.4992683,0.998204,0.003538,0.126026,-0.1925,0.35000000000000003,0.56,-0.4519146448406899,0.002630809704764689,-0.19117217187956737
1747152062.5034215,0.9977159999999999,0.0037819999999999998,0.12627,-0.1925,0.35000000000000003,0.56,-0.4519146448406899,0.002630809704764689,-0.19117217187956737
1747152062.508295,0.996984,-0.00061,0.12285399999999999,-0.22750000000000004,0.35000000000000003,0.5425000000000001,-0.4595147617655656,-0.001169248757673195,-0.1921952645425314
1747152062.5131688,0.99796,0.000244,0.123342,-0.14,0.28,0.6825000000000001,-0.4595147617655656,-0.001169248757673195,-0.1921952645425314
1747152062.518039,0.998204,0.001464,0.125294,-0.035,0.24500000000000002,0.5425000000000001,-0.4595147617655656,-0.001169248757673195,-0.1921952645425314
1747152062.522911,0.997838,0.000732,0.12456199999999999,-0.035,0.2625,0.5950000000000001,-0.4595147617655656,-0.001169248757673195,-0.1921952645425314
1747152062.5277824,0.99674,0.001098,0.125782,0.0,0.22750000000000004,0.5950000000000001,-0.4595147617655656,-0.001169248757673195,-0.1921952645425314
1747152062.532653,0.997472,0.000488,0.122976,-0.0175,0.22750000000000004,0.6300000000000001,-0.4595147617655656,-0.001169248757673195,-0.1921952645425314
1747152062.5375242,0.9971059999999999,0.0046359999999999995,0.125294,0.0175,0.22750000000000004,0.56,-0.4595147617655656,-0.001169248757673195,-0.1921952645425314
1747152062.5423968,0.99674,0.000976,0.12261,0.0,0.24500000000000002,0.5775,-0.4595147617655656,-0.001169248757673195,-0.1921952645425314
1747152062.5472775,0.998204,0.002806,0.124684,0.0,0.2625,0.6475000000000001,-0.4595147617655656,-0.001169248757673195,-0.1921952645425314
1747152062.552864,0.998082,0.0013419999999999999,0.12505,0.0,0.21000000000000002,0.5950000000000001,-0.4595147617655656,-0.001169248757673195,-0.1921952645425314
1747152062.5570302,0.998204,0.00244,0.12444,-0.035,0.12250000000000001,0.5950000000000001,-0.45016077170418006,-0.002630809704764689,-0.19000292312189418
1747152062.561887,0.99735,0.002562,0.12456199999999999,-0.0175,0.29750000000000004,0.665,-0.45016077170418006,-0.002630809704764689,-0.19000292312189418
1747152062.566762,0.998448,0.002562,0.124318,-0.0175,0.24500000000000002,0.5950000000000001,-0.45016077170418006,-0.002630809704764689,-0.19000292312189418
1747152062.571636,0.99674,0.000976,0.12505,-0.035,0.1925,0.5950000000000001,-0.45016077170418006,-0.002630809704764689,-0.19000292312189418
1747152062.5765028,0.9977159999999999,0.000122,0.12444,-0.08750000000000001,0.1925,0.6475000000000001,-0.45016077170418006,-0.002630809704764689,-0.19000292312189418
1747152062.581376,0.9977159999999999,0.002806,0.125782,-0.14,0.3325,0.6125,-0.45016077170418006,-0.002630809704764689,-0.19000292312189418
1747152062.5862496,0.998082,0.00061,0.124318,-0.15750000000000003,0.22750000000000004,0.6475000000000001,-0.45016077170418006,-0.002630809704764689,-0.19000292312189418
1747152062.5911183,0.9995459999999999,0.002196,0.124196,-0.14,0.1925,0.5950000000000001,-0.45016077170418006,-0.002630809704764689,-0.19000292312189418
1747152062.5959947,0.9977159999999999,0.001952,0.124684,-0.21000000000000002,0.31500000000000006,0.5775,-0.45016077170418006,-0.002630809704764689,-0.19000292312189418
1747152062.6008666,0.998082,0.001586,0.12505,-0.21000000000000002,0.22750000000000004,0.525,-0.45279158140894477,-0.0040923706518561824,-0.19701841566793335
1747152062.6064541,0.99796,0.003294,0.124074,-0.1925,0.22750000000000004,0.6300000000000001,-0.45279158140894477,-0.0040923706518561824,-0.19701841566793335
1747152062.6106064,0.99796,0.001586,0.12505,-0.24500000000000002,0.385,0.6300000000000001,-0.45279158140894477,-0.0040923706518561824,-0.19701841566793335
1747152062.6154933,0.99674,0.002074,0.123342,-0.14,0.1925,0.56,-0.45279158140894477,-0.0040923706518561824,-0.19701841566793335
1747152062.6203544,0.9989359999999999,0.0030499999999999998,0.124928,-0.22750000000000004,0.31500000000000006,0.5950000000000001,-0.45279158140894477,-0.0040923706518561824,-0.19701841566793335
1747152062.6252255,0.9958859999999999,0.001586,0.12505,-0.24500000000000002,0.2625,0.665,-0.45279158140894477,-0.0040923706518561824,-0.19701841566793335
1747152062.6301,0.997472,0.000488,0.12383,-0.17500000000000002,0.21000000000000002,0.6300000000000001,-0.45279158140894477,-0.0040923706518561824,-0.19701841566793335
1747152062.6350203,0.998448,0.001586,0.12505,-0.052500000000000005,0.17500000000000002,0.6125,-0.45279158140894477,-0.0040923706518561824,-0.19701841566793335
1747152062.6398897,0.99918,-0.000122,0.12383,-0.07,0.21000000000000002,0.5775,-0.45279158140894477,-0.0040923706518561824,-0.19701841566793335
1747152062.6447577,0.999302,0.001464,0.125538,-0.035,0.28,0.56,-0.45279158140894477,-0.0040923706518561824,-0.19701841566793335
1747152062.649628,0.99918,0.0023179999999999997,0.12224399999999999,-0.07,0.17500000000000002,0.47250000000000003,-0.4574685764396375,0.0020461853259280912,-0.19044139140602162
1747152062.6545062,0.999424,0.002074,0.124806,-0.15750000000000003,0.28,0.6300000000000001,-0.4574685764396375,0.0020461853259280912,-0.19044139140602162
1747152062.660092,0.998692,0.0034159999999999998,0.12566,-0.052500000000000005,0.24500000000000002,0.6125,-0.4574685764396375,0.0020461853259280912,-0.19044139140602162
1747152062.664249,0.997472,0.002562,0.124806,-0.12250000000000001,0.28,0.5425000000000001,-0.4574685764396375,0.0020461853259280912,-0.19044139140602162
1747152062.669118,0.9971059999999999,0.0034159999999999998,0.12566,-0.0175,0.24500000000000002,0.5775,-0.4574685764396375,0.0020461853259280912,-0.19044139140602162
1747152062.673991,0.99796,0.0030499999999999998,0.125172,0.07,0.14,0.6125,-0.4574685764396375,0.0020461853259280912,-0.19044139140602162
1747152062.6788673,0.99918,0.002928,0.12456199999999999,0.0,0.15750000000000003,0.6125,-0.4574685764396375,0.0020461853259280912,-0.19044139140602162
1747152062.6837392,0.997838,0.001952,0.124684,-0.052500000000000005,0.17500000000000002,0.6125,-0.4574685764396375,0.0020461853259280912,-0.19044139140602162
1747152062.6886046,0.997594,0.00122,0.123708,-0.052500000000000005,0.2625,0.5950000000000001,-0.4574685764396375,0.0020461853259280912,-0.19044139140602162
1747152062.693527,0.998204,0.001586,0.124684,-0.10500000000000001,0.22750000000000004,0.6300000000000001,-0.4574685764396375,0.0020461853259280912,-0.19584916691026016
1747152062.698396,0.997594,0.002928,0.124806,-0.0175,0.15750000000000003,0.525,-0.4443145279158141,-0.0043846828412744815,-0.19584916691026016
1747152062.703267,0.997228,0.001464,0.125538,-0.052500000000000005,0.22750000000000004,0.6125,-0.4443145279158141,-0.0043846828412744815,-0.19584916691026016
1747152062.70815,0.998204,0.0026839999999999998,0.12456199999999999,-0.0175,0.21000000000000002,0.6125,-0.4443145279158141,-0.0043846828412744815,-0.19584916691026016
1747152062.7137504,0.997594,0.0008539999999999999,0.12261,-0.035,0.21000000000000002,0.6300000000000001,-0.4443145279158141,-0.0043846828412744815,-0.19584916691026016
1747152062.717907,0.998692,0.00122,0.124318,-0.17500000000000002,0.2625,0.6125,-0.4443145279158141,-0.0043846828412744815,-0.19584916691026016
1747152062.7227685,0.998082,0.002928,0.126026,-0.21000000000000002,0.24500000000000002,0.5950000000000001,-0.4443145279158141,-0.0043846828412744815,-0.19584916691026016
1747152062.7276394,0.9971059999999999,0.0017079999999999999,0.124074,-0.10500000000000001,0.29750000000000004,0.5775,-0.4443145279158141,-0.0043846828412744815,-0.19584916691026016
1747152062.7325008,0.99735,0.0017079999999999999,0.125294,-0.15750000000000003,0.29750000000000004,0.6825000000000001,-0.4443145279158141,-0.0043846828412744815,-0.19584916691026016
1747152062.7373817,0.997838,0.00244,0.12505,-0.1925,0.35000000000000003,0.56,-0.4443145279158141,-0.0043846828412744815,-0.19584916691026016
1747152062.7422557,0.998082,0.0017079999999999999,0.123342,-0.17500000000000002,0.1925,0.49000000000000005,-0.4466530254311605,-0.006430868167202572,-0.1870798012277112
1747152062.7471278,0.997594,0.003294,0.124806,-0.12250000000000001,0.24500000000000002,0.6475000000000001,-0.4466530254311605,-0.006430868167202572,-0.1870798012277112
1747152062.7519984,0.9971059999999999,0.00366,0.124928,-0.12250000000000001,0.29750000000000004,0.6125,-0.4466530254311605,-0.006430868167202572,-0.1870798012277112
1747152062.756869,0.997594,0.00244,0.124074,-0.12250000000000001,0.29750000000000004,0.5775,-0.4466530254311605,-0.006430868167202572,-0.1870798012277112
1747152062.7617447,0.996374,0.003294,0.125538,-0.12250000000000001,0.24500000000000002,0.6125,-0.4466530254311605,-0.006430868167202572,-0.1870798012277112
1747152062.7673438,0.9952759999999999,0.0023179999999999997,0.12505,-0.14,0.2625,0.5425000000000001,-0.4466530254311605,-0.006430868167202572,-0.1870798012277112
1747152062.7714894,0.996618,0.00183,0.124806,-0.07,0.29750000000000004,0.5775,-0.4466530254311605,-0.006430868167202572,-0.1870798012277112
1747152062.7763612,0.999424,0.002806,0.12322,-0.08750000000000001,0.24500000000000002,0.56,-0.4466530254311605,-0.006430868167202572,-0.1870798012277112
1747152062.781234,0.997228,0.000488,0.122732,-0.07,0.21000000000000002,0.5775,-0.4466530254311605,-0.006430868167202572,-0.1870798012277112
1747152062.7861054,1.0004,0.0034159999999999998,0.125294,-0.052500000000000005,0.24500000000000002,0.5950000000000001,-0.4466530254311605,-0.006430868167202572,-0.1870798012277112
1747152062.7909794,0.998692,0.00183,0.125904,-0.08750000000000001,0.15750000000000003,0.56,-0.45513007892429114,0.00233849751534639,-0.19190295235311314
1747152062.7958672,0.9971059999999999,0.0013419999999999999,0.12444,-0.035,0.14,0.6125,-0.45513007892429114,0.00233849751534639,-0.19190295235311314
1747152062.800725,0.99674,0.000122,0.12456199999999999,-0.052500000000000005,0.21000000000000002,0.5950000000000001,-0.45513007892429114,0.00233849751534639,-0.19190295235311314
1747152062.8055942,0.997594,0.000732,0.12383,-0.14,0.31500000000000006,0.5775,-0.45513007892429114,0.00233849751534639,-0.19190295235311314
1747152062.8104684,0.997594,0.002806,0.124318,-0.17500000000000002,0.28,0.5775,-0.45513007892429114,0.00233849751534639,-0.19190295235311314
1747152062.8153484,0.99735,0.0037819999999999998,0.12456199999999999,-0.14,0.28,0.56,-0.45513007892429114,0.00233849751534639,-0.19190295235311314
1747152062.820936,0.99674,0.001464,0.12456199999999999,-0.14,0.2625,0.5950000000000001,-0.45513007892429114,0.00233849751534639,-0.19190295235311314
1747152062.8250844,0.999424,0.00061,0.12395199999999999,-0.17500000000000002,0.31500000000000006,0.5775,-0.45513007892429114,0.00233849751534639,-0.19190295235311314
1747152062.829958,0.997472,0.000732,0.124074,-0.14,0.28,0.5775,-0.45513007892429114,0.00233849751534639,-0.19190295235311314
1747152062.834832,0.998204,0.004514,0.12566,-0.2625,0.29750000000000004,0.6125,-0.45483776673487286,-0.005846243788365975,-0.18547208418591055
1747152062.839709,0.9983259999999999,0.0026839999999999998,0.123586,-0.22750000000000004,0.2625,0.6125,-0.45483776673487286,-0.005846243788365975,-0.18547208418591055
1747152062.8445737,0.999912,0.0030499999999999998,0.12566,-0.21000000000000002,0.29750000000000004,0.6475000000000001,-0.45483776673487286,-0.005846243788365975,-0.18547208418591055
1747152062.849448,0.99674,0.00183,0.12505,-0.17500000000000002,0.22750000000000004,0.5950000000000001,-0.45483776673487286,-0.005846243788365975,-0.18547208418591055
1747152062.8543167,0.996252,0.001586,0.12688,-0.1925,0.31500000000000006,0.5950000000000001,-0.45483776673487286,-0.005846243788365975,-0.18547208418591055
1747152062.8591905,0.998448,0.001586,0.12383,-0.22750000000000004,0.29750000000000004,0.5425000000000001,-0.45483776673487286,-0.005846243788365975,-0.18547208418591055
1747152062.8640623,0.998448,0.00488,0.12627,-0.08750000000000001,0.21000000000000002,0.5775,-0.45483776673487286,-0.005846243788365975,-0.18547208418591055
1747152062.8689628,0.997228,0.0013419999999999999,0.155306,-0.08750000000000001,0.2625,0.5775,-0.45483776673487286,-0.005846243788365975,-0.18547208418591055
1747152062.8745801,0.9977159999999999,0.001098,0.126026,-0.08750000000000001,0.24500000000000002,0.5775,-0.45483776673487286,-0.005846243788365975,-0.18547208418591055
1747152062.8787017,0.9977159999999999,0.0042699999999999995,0.126392,-0.15750000000000003,0.29750000000000004,0.5775,-0.45483776673487286,-0.005846243788365975,-0.18547208418591055
1747152062.8835833,0.998448,0.0026839999999999998,0.12395199999999999,-0.15750000000000003,0.15750000000000003,0.525,-0.45688395206080096,-0.0008769365682548962,-0.19204910844782228
1747152062.8884478,0.99796,0.00122,0.125294,-0.17500000000000002,0.2625,0.6300000000000001,-0.45688395206080096,-0.0008769365682548962,-0.19204910844782228
1747152062.8933227,0.996984,0.001098,0.124928,-0.1925,0.28,0.5425000000000001,-0.45688395206080096,-0.0008769365682548962,-0.19204910844782228
1747152062.898193,0.996008,0.00183,0.125416,-0.21000000000000002,0.29750000000000004,0.5775,-0.45688395206080096,-0.0008769365682548962,-0.19204910844782228
1747152062.903069,0.9964959999999999,0.000976,0.12456199999999999,-0.1925,0.31500000000000006,0.5775,-0.45688395206080096,-0.0008769365682548962,-0.19204910844782228
1747152062.9079435,0.9983259999999999,0.0023179999999999997,0.12383,-0.10500000000000001,0.22750000000000004,0.525,-0.45688395206080096,-0.0008769365682548962,-0.19204910844782228
1747152062.9128077,0.998082,0.0023179999999999997,0.124806,-0.10500000000000001,0.2625,0.5775,-0.45688395206080096,-0.0008769365682548962,-0.19204910844782228
1747152062.9176774,0.997838,0.001464,0.126636,-0.15750000000000003,0.31500000000000006,0.6125,-0.45688395206080096,-0.0008769365682548962,-0.19204910844782228
1747152062.9225583,0.99796,0.001464,0.124684,-0.12250000000000001,0.31500000000000006,0.6475000000000001,-0.45688395206080096,-0.0008769365682548962,-0.19204910844782228
1747152062.9281461,0.996618,0.0,0.124684,-0.12250000000000001,0.2625,0.6125,-0.46389944460684013,-0.00029231218941829873,-0.19014907921660334
1747152062.9322975,0.996252,0.0008539999999999999,0.123098,-0.07,0.17500000000000002,0.525,-0.46389944460684013,-0.00029231218941829873,-0.19014907921660334
1747152062.9371665,0.99796,0.001464,0.12395199999999999,-0.12250000000000001,0.21000000000000002,0.5775,-0.46389944460684013,-0.00029231218941829873,-0.19014907921660334
1747152062.9420393,0.998204,0.001098,0.124928,-0.0175,0.1925,0.5775,-0.46389944460684013,-0.00029231218941829873,-0.19014907921660334
1747152062.9469178,0.999424,0.0017079999999999999,0.123342,-0.07,0.21000000000000002,0.6475000000000001,-0.46389944460684013,-0.00029231218941829873,-0.19014907921660334
1747152062.951788,0.997838,0.001464,0.12456199999999999,-0.035,0.1925,0.5775,-0.46389944460684013,-0.00029231218941829873,-0.19014907921660334
1747152062.9566572,0.995764,0.0026839999999999998,0.12395199999999999,-0.08750000000000001,0.21000000000000002,0.5950000000000001,-0.46389944460684013,-0.00029231218941829873,-0.19014907921660334
1747152062.9615278,0.9983259999999999,0.002806,0.123708,-0.0175,0.22750000000000004,0.5950000000000001,-0.46389944460684013,-0.00029231218941829873,-0.19014907921660334
1747152062.9664032,0.99857,0.001586,0.123098,-0.0175,0.12250000000000001,0.7175,-0.46389944460684013,-0.00029231218941829873,-0.19014907921660334
1747152062.9712803,0.998814,0.002074,0.125538,-0.035,0.2625,0.5950000000000001,-0.46389944460684013,-0.00029231218941829873,-0.19014907921660334
1747152062.9761505,0.99613,0.0013419999999999999,0.124074,-0.08750000000000001,0.17500000000000002,0.5425000000000001,-0.4615609470914937,-0.009938614440222157,-0.19204910844782228
1747152062.9817386,0.998814,0.003294,0.126026,-0.14,0.2625,0.6300000000000001,-0.4615609470914937,-0.009938614440222157,-0.19204910844782228
1747152062.9859157,0.998814,0.003294,0.126026,-0.07,0.22750000000000004,0.5950000000000001,-0.4615609470914937,-0.009938614440222157,-0.19204910844782228
1747152062.9907637,0.997838,0.001464,0.124318,-0.10500000000000001,0.22750000000000004,0.5775,-0.4615609470914937,-0.009938614440222157,-0.19204910844782228
1747152062.9956388,0.996252,0.001464,0.123586,-0.10500000000000001,0.31500000000000006,0.56,-0.4615609470914937,-0.009938614440222157,-0.19204910844782228
1747152063.0005076,0.99674,0.002562,0.126026,-0.2625,0.2625,0.5775,-0.4615609470914937,-0.009938614440222157,-0.19204910844782228
1747152063.0053797,0.996984,0.002806,0.12383,-0.22750000000000004,0.29750000000000004,0.6125,-0.4615609470914937,-0.009938614440222157,-0.19204910844782228
1747152063.0102541,0.9977159999999999,0.001952,0.12383,-0.21000000000000002,0.28,0.5950000000000001,-0.4615609470914937,-0.009938614440222157,-0.19204910844782228
1747152063.0151267,0.996374,0.001586,0.125294,-0.21000000000000002,0.29750000000000004,0.5950000000000001,-0.4615609470914937,-0.009938614440222157,-0.19204910844782228
1747152063.0199988,0.99674,0.001586,0.125172,-0.21000000000000002,0.28,0.5425000000000001,-0.4615609470914937,-0.009938614440222157,-0.19204910844782228
1747152063.0248673,0.996862,-0.000366,0.124074,-0.17500000000000002,0.21000000000000002,0.56,-0.45922244957614733,0.00029231218941829873,-0.19351066939491376
1747152063.029741,0.996374,0.0017079999999999999,0.124074,-0.08750000000000001,0.28,0.6300000000000001,-0.45922244957614733,0.00029231218941829873,-0.19351066939491376
1747152063.0353425,0.99979,0.002928,0.125172,-0.10500000000000001,0.1925,0.5775,-0.45922244957614733,0.00029231218941829873,-0.19351066939491376
1747152063.0394876,0.99796,0.0008539999999999999,0.124684,-0.14,0.22750000000000004,0.6300000000000001,-0.45922244957614733,0.00029231218941829873,-0.19351066939491376
1747152063.044355,0.998082,0.0013419999999999999,0.124928,-0.14,0.2625,0.56,-0.45922244957614733,0.00029231218941829873,-0.19351066939491376
1747152063.04923,0.996374,0.001952,0.125294,-0.07,0.24500000000000002,0.5950000000000001,-0.45922244957614733,0.00029231218941829873,-0.19351066939491376
1747152063.0541022,0.998204,0.002074,0.125294,-0.052500000000000005,0.22750000000000004,0.56,-0.45922244957614733,0.00029231218941829873,-0.19351066939491376
1747152063.058971,0.996984,0.001952,0.124074,-0.035,0.24500000000000002,0.6300000000000001,-0.45922244957614733,0.00029231218941829873,-0.19351066939491376
1747152063.0638478,0.99735,0.002074,0.123342,0.0,0.24500000000000002,0.5950000000000001,-0.45922244957614733,0.00029231218941829873,-0.19351066939491376
1747152063.0687168,0.9971059999999999,0.0026839999999999998,0.125538,0.035,0.24500000000000002,0.56,-0.46039169833382054,0.0008769365682548962,-0.1882490499853844
1747152063.0735867,0.997594,0.002074,0.121756,-0.0175,0.21000000000000002,0.49000000000000005,-0.46039169833382054,0.0008769365682548962,-0.1882490499853844
1747152063.0784578,0.99735,0.00366,0.125538,-0.035,0.21000000000000002,0.5775,-0.46039169833382054,0.0008769365682548962,-0.1882490499853844
1747152063.0833309,0.998814,0.001952,0.125172,0.0,0.1925,0.5425000000000001,-0.46039169833382054,0.0008769365682548962,-0.1882490499853844
1747152063.0889556,0.99857,0.0013419999999999999,0.12749,0.052500000000000005,0.2625,0.5775,-0.46039169833382054,0.0008769365682548962,-0.1882490499853844
1747152063.0930734,0.999424,0.000732,0.12749,-0.17500000000000002,0.24500000000000002,0.56,-0.46039169833382054,0.0008769365682548962,-0.1882490499853844
1747152063.097941,1.000034,0.002562,0.125416,-0.035,0.1925,0.6125,-0.46039169833382054,0.0008769365682548962,-0.1882490499853844
1747152063.1028187,0.997594,0.002928,0.125294,0.0175,0.12250000000000001,0.5775,-0.46039169833382054,0.0008769365682548962,-0.1882490499853844
1747152063.1076958,0.997838,0.0013419999999999999,0.12383,-0.07,0.24500000000000002,0.5950000000000001,-0.46039169833382054,0.0008769365682548962,-0.1882490499853844
1747152063.112563,0.996374,0.001586,0.12383,-0.15750000000000003,0.2625,0.6475000000000001,-0.46039169833382054,0.0008769365682548962,-0.1882490499853844
1747152063.1174362,0.99918,0.0017079999999999999,0.12395199999999999,-0.22750000000000004,0.24500000000000002,0.5775,-0.45893013738672905,0.003215434083601286,-0.1856182402806197
1747152063.1223083,0.998814,0.001586,0.126636,-0.17500000000000002,0.22750000000000004,0.5775,-0.45893013738672905,0.003215434083601286,-0.1856182402806197
1747152063.1271803,0.9989359999999999,0.0023179999999999997,0.124074,-0.21000000000000002,0.35000000000000003,0.6125,-0.45893013738672905,0.003215434083601286,-0.1856182402806197
1747152063.1320539,0.997838,0.003172,0.123586,-0.21000000000000002,0.31500000000000006,0.6125,-0.45893013738672905,0.003215434083601286,-0.1856182402806197
1747152063.1369252,0.998814,0.0034159999999999998,0.124806,-0.21000000000000002,0.29750000000000004,0.5950000000000001,-0.45893013738672905,0.003215434083601286,-0.1856182402806197
1747152063.1425245,0.9971059999999999,0.001098,0.123464,-0.24500000000000002,0.31500000000000006,0.6300000000000001,-0.45893013738672905,0.003215434083601286,-0.1856182402806197
1747152063.146674,0.999058,0.0017079999999999999,0.124196,-0.28,0.29750000000000004,0.6300000000000001,-0.45893013738672905,0.003215434083601286,-0.1856182402806197
1747152063.1515443,0.997838,0.002074,0.125904,-0.17500000000000002,0.22750000000000004,0.5775,-0.45893013738672905,0.003215434083601286,-0.1856182402806197
1747152063.1564164,0.9971059999999999,0.002806,0.12505,-0.14,0.28,0.5775,-0.45893013738672905,0.003215434083601286,-0.1856182402806197
1747152063.1612866,0.996008,0.001586,0.123342,-0.21000000000000002,0.35000000000000003,0.5950000000000001,-0.45893013738672905,0.003215434083601286,-0.1856182402806197
1747152063.1661594,0.996374,0.00244,0.125782,-0.10500000000000001,0.24500000000000002,0.56,-0.44899152294650685,0.0008769365682548962,-0.18868751826951183
1747152063.17103,0.996252,0.00061,0.12627,-0.10500000000000001,0.24500000000000002,0.6125,-0.44899152294650685,0.0008769365682548962,-0.18868751826951183
1747152063.1759102,0.996984,0.000488,0.125416,-0.12250000000000001,0.29750000000000004,0.6475000000000001,-0.44899152294650685,0.0008769365682548962,-0.18868751826951183
1747152063.1807733,0.998204,0.001464,0.125904,-0.08750000000000001,0.24500000000000002,0.5775,-0.44899152294650685,0.0008769365682548962,-0.18868751826951183
1747152063.1856441,0.996984,0.002806,0.125782,0.0,0.2625,0.5950000000000001,-0.44899152294650685,0.0008769365682548962,-0.18868751826951183
1747152063.1905196,0.99796,0.0023179999999999997,0.12456199999999999,-0.035,0.21000000000000002,0.5775,-0.44899152294650685,0.0008769365682548962,-0.18868751826951183
1747152063.1961088,0.998082,0.000732,0.123342,-0.0175,0.29750000000000004,0.6125,-0.44899152294650685,0.0008769365682548962,-0.18868751826951183
1747152063.2002606,0.998692,0.003538,0.12505,-0.0175,0.29750000000000004,0.5950000000000001,-0.44899152294650685,0.0008769365682548962,-0.18868751826951183
1747152063.205132,0.99735,0.002074,0.125904,4.3925,0.21000000000000002,0.5775,-0.44899152294650685,0.0008769365682548962,-0.18868751826951183
