Timestamp,Accel X,Accel Y,Accel Z,Gyro X,Gyro Y,Gyro Z,Magneto X,Magneto Y,Magneto Z
1748435685.59708,0.995764,-0.033062,0.13480999999999999,-0.6825000000000001,1.0850000000000002,0.5950000000000001,-0.4580532008184741,-0.018123355743934522,-0.15828705057000877
1748435685.6019347,0.984906,-0.045384,0.142374,-0.6475000000000001,1.715,1.05,-0.4580532008184741,-0.018123355743934522,-0.15828705057000877
1748435685.606798,0.9840519999999999,-0.025863999999999998,0.138592,-0.49000000000000005,2.205,0.9625000000000001,-0.4580532008184741,-0.018123355743934522,-0.15828705057000877
1748435685.6116722,1.002352,-0.03477,0.12456199999999999,-0.5425000000000001,2.7125000000000004,1.2425000000000002,-0.4580532008184741,-0.018123355743934522,-0.15828705057000877
1748435685.6165445,0.97844,-0.030012,0.137616,-0.6475000000000001,4.0075,1.155,-0.4580532008184741,-0.018123355743934522,-0.15828705057000877
1748435685.6214244,0.97478,-0.028791999999999998,0.144692,-0.5775,4.305000000000001,1.2775,-0.4580532008184741,-0.018123355743934522,-0.15828705057000877
1748435685.6262977,0.980148,-0.033549999999999996,0.133224,-0.6125,4.1475,1.5225000000000002,-0.4580532008184741,-0.018123355743934522,-0.15828705057000877
1748435685.631226,0.9858819999999999,-0.03538,0.14188599999999998,-0.525,4.8475,1.4875,-0.4580532008184741,-0.018123355743934522,-0.15828705057000877
1748435685.636086,1.001498,-0.032818,0.13176,-0.5425000000000001,4.952500000000001,1.4525000000000001,-0.4580532008184741,-0.018123355743934522,-0.15828705057000877
1748435685.6409516,0.9916159999999999,-0.033428,0.133468,-0.525,5.7925,1.3650000000000002,-0.4580532008184741,-0.018123355743934522,-0.15828705057000877
1748435685.645837,0.9742919999999999,-0.033672,0.136396,-0.5425000000000001,6.335000000000001,1.4175000000000002,-0.45513007892429114,-0.008184741303712365,-0.16778719672610348
1748435685.6507218,0.974536,-0.033549999999999996,0.138836,-0.42000000000000004,5.897500000000001,1.2600000000000002,-0.45513007892429114,-0.008184741303712365,-0.16778719672610348
1748435685.6555827,0.989908,-0.033672,0.126514,-0.45500000000000007,6.265000000000001,1.9250000000000003,-0.45513007892429114,-0.008184741303712365,-0.16778719672610348
1748435685.6604588,0.9943,-0.035013999999999997,0.124806,-0.47250000000000003,6.825000000000001,1.6275000000000002,-0.45513007892429114,-0.008184741303712365,-0.16778719672610348
1748435685.6653368,0.989298,-0.032208,0.12383,-0.36750000000000005,7.175000000000001,1.6275000000000002,-0.45513007892429114,-0.008184741303712365,-0.16778719672610348
1748435685.6702135,0.986614,-0.031842,0.124928,-0.29750000000000004,7.385000000000001,1.6450000000000002,-0.45513007892429114,-0.008184741303712365,-0.16778719672610348
1748435685.675084,0.9943,-0.032818,0.11406999999999999,-0.24500000000000002,7.245000000000001,1.6625,-0.45513007892429114,-0.008184741303712365,-0.16778719672610348
1748435685.679966,0.99552,-0.03477,0.11345999999999999,-0.14,7.5600000000000005,1.5925000000000002,-0.45513007892429114,-0.008184741303712365,-0.16778719672610348
1748435685.6848414,0.994788,-0.030255999999999998,0.10931199999999999,-0.1925,7.5425,1.4525000000000001,-0.45513007892429114,-0.008184741303712365,-0.16778719672610348
1748435685.6900306,0.987834,-0.030622,0.112972,-0.22750000000000004,7.7875000000000005,1.2775,-0.45513007892429114,-0.008184741303712365,-0.16778719672610348
1748435685.694593,0.988932,-0.029523999999999998,0.111752,-0.29750000000000004,7.017500000000001,0.805,-0.4533762057877814,-0.009938614440222157,-0.166325635779012
1748435685.699464,0.99674,-0.031598,0.109068,-0.665,7.367500000000001,1.2600000000000002,-0.4533762057877814,-0.009938614440222157,-0.166325635779012
1748435685.7043366,1.001742,-0.041724,0.11041,-0.7525000000000001,7.5600000000000005,0.7875000000000001,-0.4533762057877814,-0.009938614440222157,-0.166325635779012
1748435685.7092154,1.008818,-0.02501,0.10992199999999999,-0.9800000000000001,7.227500000000001,0.8925000000000001,-0.4533762057877814,-0.009938614440222157,-0.166325635779012
1748435685.714089,1.005646,-0.022935999999999998,0.124806,-1.12,7.612500000000001,0.805,-0.4533762057877814,-0.009938614440222157,-0.166325635779012
1748435685.7189662,1.012844,-0.03172,0.11102,-1.2075,7.0875,0.5950000000000001,-0.4533762057877814,-0.009938614440222157,-0.166325635779012
1748435685.7238345,1.001254,-0.04026,0.11102,-1.1375000000000002,7.420000000000001,0.56,-0.4533762057877814,-0.009938614440222157,-0.166325635779012
1748435685.7287154,0.984906,-0.033672,0.126148,-1.0150000000000001,7.245000000000001,0.5075000000000001,-0.4533762057877814,-0.009938614440222157,-0.166325635779012
1748435685.7335906,1.013942,-0.04636,0.101992,-0.9450000000000001,6.23,0.43750000000000006,-0.4533762057877814,-0.009938614440222157,-0.166325635779012
1748435685.738466,1.000278,-0.034526,0.10248,-0.9975,6.562500000000001,0.29750000000000004,-0.4533762057877814,-0.009938614440222157,-0.166325635779012
1748435685.74334,0.992958,-0.044407999999999996,0.121146,-1.0150000000000001,6.527500000000001,0.385,-0.45571470330312774,-0.00964630225080386,-0.17567962584039754
1748435685.7482138,1.008208,-0.03904,0.098088,-0.9975,5.1275,0.43750000000000006,-0.45571470330312774,-0.00964630225080386,-0.17567962584039754
1748435685.7530892,0.999912,-0.040138,0.102724,-1.1375000000000002,5.845000000000001,0.6475000000000001,-0.45571470330312774,-0.00964630225080386,-0.17567962584039754
1748435685.7579675,0.998448,-0.044652,0.116266,-1.155,5.460000000000001,0.7175,-0.45571470330312774,-0.00964630225080386,-0.17567962584039754
1748435685.76284,1.011502,-0.04209,0.108946,-1.05,4.3925,0.5775,-0.45571470330312774,-0.00964630225080386,-0.17567962584039754
1748435685.767713,1.022238,-0.04331,0.099796,-1.0150000000000001,3.99,0.525,-0.45571470330312774,-0.00964630225080386,-0.17567962584039754
1748435685.772589,1.007354,-0.047335999999999996,0.11516799999999999,-1.0325000000000002,4.2875000000000005,0.49000000000000005,-0.45571470330312774,-0.00964630225080386,-0.17567962584039754
1748435685.7774615,1.003694,-0.045506,0.11638799999999999,-0.9625000000000001,3.43,0.4025,-0.45571470330312774,-0.00964630225080386,-0.17567962584039754
1748435685.782342,1.013454,-0.042943999999999996,0.112972,-0.9100000000000001,2.975,0.3325,-0.45571470330312774,-0.00964630225080386,-0.17567962584039754
1748435685.787213,1.018944,-0.04514,0.11223999999999999,-1.0150000000000001,2.66,0.42000000000000004,-0.45571470330312774,-0.00964630225080386,-0.17567962584039754
1748435685.7980406,1.014796,-0.04392,0.121146,-0.8400000000000001,1.8025000000000002,0.15750000000000003,-0.4498684595147618,-0.009061677871967261,-0.16471791873721134
1748435685.8045192,1.001376,-0.040626,0.123464,-0.5425000000000001,1.4875,0.6300000000000001,-0.4498684595147618,-0.009061677871967261,-0.16471791873721134
1748435685.8080368,1.012112,-0.0427,0.11992599999999999,-0.35000000000000003,1.2600000000000002,0.665,-0.4498684595147618,-0.009061677871967261,-0.16471791873721134
1748435685.8129175,1.016992,-0.042578,0.119194,-0.24500000000000002,0.8925000000000001,0.77,-0.4498684595147618,-0.009061677871967261,-0.16471791873721134
1748435685.8178332,1.013454,-0.043676,0.12261,-0.12250000000000001,1.0850000000000002,1.0675000000000001,-0.4498684595147618,-0.009061677871967261,-0.16471791873721134
1748435685.8227205,1.011746,-0.044164,0.117852,0.0175,0.665,1.2600000000000002,-0.4498684595147618,-0.009061677871967261,-0.16471791873721134
1748435685.8276613,1.014186,-0.043188,0.118584,0.15750000000000003,0.665,1.1725,-0.4498684595147618,-0.009061677871967261,-0.16471791873721134
1748435685.8324974,1.011136,-0.04209,0.10638399999999999,0.31500000000000006,0.3325,1.1725,-0.4498684595147618,-0.009061677871967261,-0.16471791873721134
1748435685.837393,1.000522,-0.03721,0.120658,0.43750000000000006,0.6300000000000001,1.12,-0.4498684595147618,-0.009061677871967261,-0.16983338205203158
1748435685.8427975,0.9958859999999999,-0.035623999999999996,0.110166,0.5775,-0.12250000000000001,0.9800000000000001,-0.45980707395498394,-0.003800058462437884,-0.16983338205203158
1748435685.847364,0.991494,-0.036966,0.115656,0.5425000000000001,0.3325,1.5575,-0.45980707395498394,-0.003800058462437884,-0.16983338205203158
1748435685.852254,0.994178,-0.034648,0.111874,0.6125,0.052500000000000005,1.3475000000000001,-0.45980707395498394,-0.003800058462437884,-0.16983338205203158
1748435685.8585641,0.990152,-0.032208,0.118462,0.77,0.08750000000000001,1.4875,-0.45980707395498394,-0.003800058462437884,-0.16983338205203158
1748435685.8620353,0.984174,-0.02867,0.120292,0.77,0.08750000000000001,1.4875,-0.45980707395498394,-0.003800058462437884,-0.16983338205203158
1748435685.8669047,0.986858,-0.029402,0.127612,0.7350000000000001,-0.07,1.12,-0.45980707395498394,-0.003800058462437884,-0.16983338205203158
1748435685.8717904,0.98942,-0.033794,0.120902,0.7175,-0.385,1.33,-0.45980707395498394,-0.003800058462437884,-0.16983338205203158
1748435685.8766878,0.991982,-0.034892,0.13237,0.7875000000000001,0.035,1.3125000000000002,-0.45980707395498394,-0.003800058462437884,-0.16983338205203158
1748435685.8815613,0.999058,-0.033306,0.124074,0.8750000000000001,0.07,1.5750000000000002,-0.45980707395498394,-0.003800058462437884,-0.16983338205203158
1748435685.8864484,0.997228,-0.033549999999999996,0.132492,1.3475000000000001,-0.31500000000000006,1.9075000000000002,-0.45045308389359834,-0.007892429114294067,-0.16530254311604795
1748435685.8913226,0.9952759999999999,-0.01647,0.128466,1.9425000000000001,0.42000000000000004,2.4675000000000002,-0.45045308389359834,-0.007892429114294067,-0.16530254311604795
1748435685.8962014,1.019676,0.061975999999999996,0.089914,2.3275,0.31500000000000006,-0.7350000000000001,-0.45045308389359834,-0.007892429114294067,-0.16530254311604795
1748435685.90108,1.007598,-0.114802,0.11053199999999999,2.4675000000000002,1.155,1.4875,-0.45045308389359834,-0.007892429114294067,-0.16530254311604795
1748435685.905961,0.9688019999999999,-0.19763999999999998,0.15799,3.08,5.005000000000001,0.4025,-0.45045308389359834,-0.007892429114294067,-0.16530254311604795
1748435685.911726,0.933422,0.069662,0.17885199999999998,3.6925000000000003,3.6750000000000003,-3.2375000000000003,-0.45045308389359834,-0.007892429114294067,-0.16530254311604795
1748435685.915736,1.020652,-0.137982,0.012078,2.7300000000000004,1.4875,1.7325000000000002,-0.45045308389359834,-0.007892429114294067,-0.16530254311604795
1748435685.9205992,0.8522919999999999,0.058926,0.199592,1.8025000000000002,6.6325,-2.0825,-0.45045308389359834,-0.007892429114294067,-0.16530254311604795
1748435685.9254735,1.078114,-0.04087,0.130906,2.0125,1.1375000000000002,2.6075000000000004,-0.45045308389359834,-0.007892429114294067,-0.16530254311604795
1748435685.9303572,0.987834,-0.043554,0.036844,1.2425000000000002,2.0475000000000003,1.6625,-0.45045308389359834,-0.007892429114294067,-0.16530254311604795
1748435685.9352355,0.892552,-0.018788,0.23363,1.7850000000000001,6.492500000000001,1.8375000000000001,-0.45162233265127155,-0.0005846243788365975,-0.17217187956737795
1748435685.940118,1.047614,-0.0075639999999999995,0.120414,2.7125000000000004,-1.12,1.7500000000000002,-0.45162233265127155,-0.0005846243788365975,-0.17217187956737795
1748435685.944997,1.021506,-0.031598,0.084302,2.45,1.155,2.5375,-0.45162233265127155,-0.0005846243788365975,-0.17217187956737795
1748435685.9498756,1.017236,-0.013176,0.177388,2.9050000000000002,3.4475000000000002,1.6275000000000002,-0.45162233265127155,-0.0005846243788365975,-0.17217187956737795
1748435685.954776,1.060058,-0.034648,0.061488,2.9050000000000002,0.052500000000000005,2.1525000000000003,-0.45162233265127155,-0.0005846243788365975,-0.17217187956737795
1748435685.95965,0.987712,-0.03233,0.117852,2.7125000000000004,3.325,1.6275000000000002,-0.45162233265127155,-0.0005846243788365975,-0.17217187956737795
1748435685.9652555,0.953796,-0.020374,0.14835199999999998,2.8000000000000003,2.5900000000000003,1.7500000000000002,-0.45162233265127155,-0.0005846243788365975,-0.17217187956737795
1748435685.9693944,1.017602,-0.02867,0.098576,2.8000000000000003,0.07,2.1350000000000002,-0.45162233265127155,-0.0005846243788365975,-0.17217187956737795
1748435685.9742768,0.99735,-0.024522,0.108214,2.5375,0.8400000000000001,1.6275000000000002,-0.45162233265127155,-0.0005846243788365975,-0.17217187956737795
1748435685.979156,1.026264,-0.039528,0.13298,2.5200000000000005,0.9100000000000001,1.9425000000000001,-0.45162233265127155,-0.0005846243788365975,-0.17217187956737795
1748435685.984038,1.029436,-0.037332,0.08784,2.3625000000000003,-0.28,1.54,-0.45483776673487286,0.007892429114294067,-0.17275650394621456
1748435685.9889147,0.9977159999999999,-0.11834,0.159698,2.0650000000000004,-3.4825000000000004,1.2775,-0.45483776673487286,0.007892429114294067,-0.17275650394621456
1748435685.9937935,1.113494,-0.042943999999999996,0.172508,1.9775000000000003,0.4025,1.0675000000000001,-0.45483776673487286,0.007892429114294067,-0.17275650394621456
1748435685.9986742,1.004182,0.109068,-0.033428,1.05,8.4875,4.515000000000001,-0.45483776673487286,0.007892429114294067,-0.17275650394621456
1748435686.0035558,0.889746,-0.067588,0.275476,0.8575,-1.5750000000000002,3.325,-0.45483776673487286,0.007892429114294067,-0.17275650394621456
1748435686.0084321,0.914878,-0.00061,0.035136,1.33,-2.415,4.6725,-0.45483776673487286,0.007892429114294067,-0.17275650394621456
1748435686.0133202,1.011624,-0.05124,0.227652,2.2225,4.0075,1.5925000000000002,-0.45483776673487286,0.007892429114294067,-0.17275650394621456
1748435686.0189571,1.091168,-0.056119999999999996,0.04209,2.87,-1.1725,1.225,-0.45483776673487286,0.007892429114294067,-0.17275650394621456
1748435686.0230699,0.9533079999999999,-0.030012,0.127368,2.7825,3.9200000000000004,0.7350000000000001,-0.45483776673487286,0.007892429114294067,-0.17275650394621456
1748435686.0279505,0.889868,-0.046726,0.189222,2.9225000000000003,2.2225,1.6625,-0.45483776673487286,0.007892429114294067,-0.17275650394621456
1748435686.032832,0.99796,-0.04514,0.069296,3.0100000000000002,-2.87,1.9775000000000003,-0.4440222157263958,-0.008184741303712365,-0.1729026600409237
1748435686.0377083,1.017602,-0.042822,0.108824,2.6425,-0.9100000000000001,2.0300000000000002,-0.4440222157263958,-0.008184741303712365,-0.1729026600409237
1748435686.0425925,1.042856,-0.070272,0.14249599999999998,2.555,0.07,2.24,-0.4440222157263958,-0.008184741303712365,-0.1729026600409237
1748435686.0474706,1.039806,-0.032818,0.108946,2.555,-1.2775,0.6825000000000001,-0.4440222157263958,-0.008184741303712365,-0.1729026600409237
1748435686.052345,1.011502,-0.044164,0.114436,2.2225,-0.28,0.5950000000000001,-0.4440222157263958,-0.008184741303712365,-0.1729026600409237
1748435686.057224,0.976366,-0.038064,0.144448,2.205,-0.0175,0.29750000000000004,-0.4440222157263958,-0.008184741303712365,-0.1729026600409237
1748435686.0621073,0.985028,-0.028304,0.12078,2.1525000000000003,-1.5925000000000002,0.21000000000000002,-0.4440222157263958,-0.008184741303712365,-0.1729026600409237
1748435686.0669913,0.99918,-0.03599,0.114192,1.8900000000000001,-1.8025000000000002,0.6825000000000001,-0.4440222157263958,-0.008184741303712365,-0.1729026600409237
1748435686.0726051,0.991982,-0.040504,0.142984,1.8200000000000003,-1.0150000000000001,0.6825000000000001,-0.4440222157263958,-0.008184741303712365,-0.1729026600409237
1748435686.076744,1.016382,-0.03843,0.12566,1.7325000000000002,-2.0825,0.49000000000000005,-0.4440222157263958,-0.008184741303712365,-0.1729026600409237
1748435686.0816226,1.017114,-0.032818,0.12505,1.5575,-1.5575,0.08750000000000001,-0.4498684595147618,0.0005846243788365975,-0.1734872844197603
1748435686.086506,0.99308,-0.034038,0.146766,1.5050000000000001,-1.0850000000000002,0.035,-0.4498684595147618,0.0005846243788365975,-0.1734872844197603
1748435686.0913858,1.000156,-0.033428,0.14274,1.4000000000000001,-1.4525000000000001,0.5775,-0.4498684595147618,0.0005846243788365975,-0.1734872844197603
1748435686.0962656,1.014308,-0.032818,0.117364,1.33,-1.5925000000000002,0.3325,-0.4498684595147618,0.0005846243788365975,-0.1734872844197603
1748435686.1011462,0.9922259999999999,-0.033794,0.153354,1.225,-0.35000000000000003,0.2625,-0.4498684595147618,0.0005846243788365975,-0.1734872844197603
1748435686.1060233,0.999058,-0.036478,0.1464,1.225,-1.4175000000000002,0.12250000000000001,-0.4498684595147618,0.0005846243788365975,-0.1734872844197603
1748435686.110906,1.01504,-0.033428,0.134566,0.9975,-0.6825000000000001,0.22750000000000004,-0.4498684595147618,0.0005846243788365975,-0.1734872844197603
1748435686.1157868,1.000644,-0.035502,0.141642,0.77,-0.385,0.22750000000000004,-0.4498684595147618,0.0005846243788365975,-0.1734872844197603
1748435686.1206636,0.9922259999999999,-0.033184,0.134566,0.56,-0.8925000000000001,0.4025,-0.4498684595147618,0.0005846243788365975,-0.1734872844197603
1748435686.1262882,0.995154,-0.03965,0.13908,0.28,-0.08750000000000001,0.385,-0.4498684595147618,0.0005846243788365975,-0.1734872844197603
1748435686.1304185,0.99003,-0.037942,0.138226,0.08750000000000001,-0.035,0.07,-0.45893013738672905,-0.0035077462730195848,-0.1711487869044139
1748435686.1353,0.9916159999999999,-0.037698,0.137982,-0.08750000000000001,0.3325,0.052500000000000005,-0.45893013738672905,-0.0035077462730195848,-0.1711487869044139
1748435686.1401813,0.987346,-0.03477,0.134932,-0.29750000000000004,1.1375000000000002,0.385,-0.45893013738672905,-0.0035077462730195848,-0.1711487869044139
1748435686.1450593,0.989908,-0.03843,0.146156,-0.47250000000000003,1.54,0.5075000000000001,-0.45893013738672905,-0.0035077462730195848,-0.1711487869044139
1748435686.1499393,0.995154,-0.039528,0.126148,-0.5425000000000001,1.5225000000000002,0.5425000000000001,-0.45893013738672905,-0.0035077462730195848,-0.1711487869044139
1748435686.1548183,0.989054,-0.039528,0.134078,-0.6125,2.555,0.525,-0.45893013738672905,-0.0035077462730195848,-0.1711487869044139
1748435686.1597,0.9742919999999999,-0.039528,0.128466,-0.6300000000000001,2.9575000000000005,0.7175,-0.45893013738672905,-0.0035077462730195848,-0.1711487869044139
1748435686.1645787,0.962946,-0.03904,0.13725,-0.805,3.2375000000000003,0.9625000000000001,-0.45893013738672905,-0.0035077462730195848,-0.1711487869044139
1748435686.1694558,0.97661,-0.061488,0.13541999999999998,-0.8400000000000001,2.8000000000000003,1.5050000000000001,-0.45893013738672905,-0.0035077462730195848,-0.1711487869044139
1748435686.1743388,0.980514,-0.049288,0.124318,-0.7000000000000001,2.8525000000000005,0.805,-0.45893013738672905,-0.0035077462730195848,-0.1711487869044139
1748435686.1799462,0.98698,-0.049776,0.11773,-0.5425000000000001,3.115,0.9100000000000001,-0.4513300204618533,-0.0017538731365097924,-0.1749488453668518
1748435686.1840973,0.966484,-0.051118,0.12871,-0.5425000000000001,3.535,0.7350000000000001,-0.4513300204618533,-0.0017538731365097924,-0.1749488453668518
1748435686.1889753,0.972828,-0.047092,0.119194,-0.5775,3.5525,1.155,-0.4513300204618533,-0.0017538731365097924,-0.1749488453668518
1748435686.1938558,0.981734,-0.044896,0.11638799999999999,-0.525,3.9550000000000005,1.155,-0.4513300204618533,-0.0017538731365097924,-0.1749488453668518
1748435686.198736,0.974414,-0.050386,0.113094,-0.6300000000000001,4.2525,1.2950000000000002,-0.4513300204618533,-0.0017538731365097924,-0.1749488453668518
1748435686.203615,0.97295,-0.03843,0.12749,-0.6125,4.532500000000001,1.0325000000000002,-0.4513300204618533,-0.0017538731365097924,-0.1749488453668518
1748435686.2085,0.977464,-0.041724,0.115046,-0.665,3.99,1.225,-0.4513300204618533,-0.0017538731365097924,-0.1749488453668518
1748435686.2133737,0.984296,-0.033062,0.139446,-0.6300000000000001,4.1825,1.5750000000000002,-0.4513300204618533,-0.0017538731365097924,-0.1749488453668518
1748435686.2182531,1.010892,-0.04697,0.127246,-0.42000000000000004,3.3075,1.2950000000000002,-0.4513300204618533,-0.0017538731365097924,-0.1749488453668518
1748435686.223133,1.012112,-0.038918,0.127368,-0.21000000000000002,3.1325000000000003,1.33,-0.4513300204618533,-0.0017538731365097924,-0.1749488453668518
1748435686.2280192,1.00406,-0.047092,0.134932,0.08750000000000001,2.1700000000000004,0.5950000000000001,-0.45542239111370947,-0.007892429114294067,-0.17684887459807075
1748435686.233623,1.009794,-0.051606,0.120536,0.24500000000000002,1.9600000000000002,0.6475000000000001,-0.45542239111370947,-0.007892429114294067,-0.17684887459807075
1748435686.2377787,1.009794,-0.042334,0.130662,0.36750000000000005,2.1,0.035,-0.45542239111370947,-0.007892429114294067,-0.17684887459807075
1748435686.2426558,1.014064,-0.04819,0.10699399999999999,0.47250000000000003,1.2425000000000002,-0.17500000000000002,-0.45542239111370947,-0.007892429114294067,-0.17684887459807075
1748435686.247538,0.9852719999999999,-0.03477,0.12456199999999999,0.6825000000000001,2.1350000000000002,-0.4025,-0.45542239111370947,-0.007892429114294067,-0.17684887459807075
1748435686.252414,0.9779519999999999,-0.045994,0.115412,0.7000000000000001,1.225,0.0175,-0.45542239111370947,-0.007892429114294067,-0.17684887459807075
1748435686.2572908,0.988322,-0.041724,0.12017,0.7000000000000001,0.805,-0.035,-0.45542239111370947,-0.007892429114294067,-0.17684887459807075
1748435686.2621717,0.99552,-0.044286,0.11529,0.7525000000000001,0.5075000000000001,0.14,-0.45542239111370947,-0.007892429114294067,-0.17684887459807075
1748435686.2670536,1.008574,-0.042456,0.128222,0.8400000000000001,0.5075000000000001,0.0175,-0.45542239111370947,-0.007892429114294067,-0.17684887459807075
1748435686.2719316,1.008696,-0.049288,0.11529,0.8575,0.1925,0.10500000000000001,-0.45542239111370947,-0.007892429114294067,-0.17684887459807075
1748435686.2768092,1.001986,-0.039162,0.135542,0.8575,0.525,-0.1925,-0.4533762057877814,-0.006723180356620871,-0.1740719087985969
1748435686.2816906,1.003938,-0.032452,0.111996,0.665,-0.28,0.07,-0.4533762057877814,-0.006723180356620871,-0.1740719087985969
1748435686.287311,1.02968,-0.027572,0.10638399999999999,-0.17500000000000002,0.22750000000000004,0.24500000000000002,-0.4533762057877814,-0.006723180356620871,-0.1740719087985969
1748435686.2914438,1.027118,-0.073688,0.11638799999999999,-1.0675000000000001,0.9625000000000001,0.15750000000000003,-0.4533762057877814,-0.006723180356620871,-0.1740719087985969
1748435686.2963302,0.95465,-0.058316,0.156526,-0.7875000000000001,2.2575000000000003,-0.1925,-0.4533762057877814,-0.006723180356620871,-0.1740719087985969
1748435686.3012052,0.933788,-0.07356599999999999,0.156526,-0.5075000000000001,0.9275000000000001,0.7525000000000001,-0.4533762057877814,-0.006723180356620871,-0.1740719087985969
1748435686.3060849,0.972218,-0.05429,0.158478,-0.035,-0.31500000000000006,0.42000000000000004,-0.4533762057877814,-0.006723180356620871,-0.1740719087985969
1748435686.3109758,1.029558,-0.041358,0.125416,0.28,-0.7875000000000001,0.7175,-0.4533762057877814,-0.006723180356620871,-0.1740719087985969
1748435686.315858,1.024678,-0.045018,0.155306,0.385,0.7525000000000001,1.0675000000000001,-0.4533762057877814,-0.006723180356620871,-0.1740719087985969
1748435686.3207345,0.997838,-0.036356,0.140544,0.49000000000000005,0.5775,0.9100000000000001,-0.4533762057877814,-0.006723180356620871,-0.1740719087985969
1748435686.325614,0.9828319999999999,-0.026108,0.138592,0.42000000000000004,-0.28,0.9100000000000001,-0.45454545454545453,-0.0043846828412744815,-0.17831043554516224
1748435686.3305082,1.00406,-0.051362,0.13602999999999998,-0.052500000000000005,-0.035,0.9975,-0.45454545454545453,-0.0043846828412744815,-0.17831043554516224
1748435686.335384,1.036878,-0.049409999999999996,0.135054,0.14,0.4025,0.8400000000000001,-0.45454545454545453,-0.0043846828412744815,-0.17831043554516224
1748435686.3409994,0.98698,-0.042334,0.15128,0.6300000000000001,0.6475000000000001,0.7350000000000001,-0.45454545454545453,-0.0043846828412744815,-0.17831043554516224
1748435686.3451517,0.98698,-0.011101999999999999,0.151158,1.1900000000000002,-0.6475000000000001,0.49000000000000005,-0.45454545454545453,-0.0043846828412744815,-0.17831043554516224
1748435686.3500338,1.02846,-0.041968,0.137128,1.7850000000000001,-2.8000000000000003,0.7000000000000001,-0.45454545454545453,-0.0043846828412744815,-0.17831043554516224
1748435686.354916,1.061522,-0.040626,0.102602,2.205,-3.3950000000000005,0.17500000000000002,-0.45454545454545453,-0.0043846828412744815,-0.17831043554516224
1748435686.3597977,1.0420019999999999,-0.029523999999999998,0.119072,2.45,-2.5025000000000004,-0.07,-0.45454545454545453,-0.0043846828412744815,-0.17831043554516224
1748435686.3646758,1.00223,-0.039284,0.11468,2.3275,-3.0625000000000004,0.36750000000000005,-0.45454545454545453,-0.0043846828412744815,-0.17831043554516224
1748435686.369558,0.987834,-0.039772,0.11406999999999999,2.1175,-4.0425,0.5775,-0.45454545454545453,-0.0043846828412744815,-0.17831043554516224
1748435686.374445,1.011136,-0.051727999999999996,0.093452,1.9425000000000001,-5.197500000000001,0.805,-0.4574685764396375,-0.015784858228588133,-0.18137971353405438
1748435686.3793287,1.01809,-0.051606,0.091256,1.7325000000000002,-4.69,1.2775,-0.4574685764396375,-0.015784858228588133,-0.18137971353405438
1748435686.38421,1.003694,-0.052826,0.092842,1.4700000000000002,-3.8675,1.2075,-0.4574685764396375,-0.015784858228588133,-0.18137971353405438
1748435686.3890898,0.97844,-0.04331,0.099308,1.2425000000000002,-3.43,1.0675000000000001,-0.4574685764396375,-0.015784858228588133,-0.18137971353405438
1748435686.3947272,0.9694119999999999,-0.045262,0.112118,1.1025,-3.3775000000000004,1.3125000000000002,-0.4574685764396375,-0.015784858228588133,-0.18137971353405438
1748435686.3988523,0.98637,-0.044652,0.11114199999999999,0.9975,-3.6050000000000004,1.6450000000000002,-0.4574685764396375,-0.015784858228588133,-0.18137971353405438
1748435686.4037309,0.989298,-0.044286,0.11712,0.9450000000000001,-3.2375000000000003,1.435,-0.4574685764396375,-0.015784858228588133,-0.18137971353405438
1748435686.4086082,0.987834,-0.047458,0.138104,0.8925000000000001,-2.6425,1.6450000000000002,-0.4574685764396375,-0.015784858228588133,-0.18137971353405438
1748435686.4134884,0.985516,-0.049288,0.14518,1.0150000000000001,-2.5725000000000002,1.3650000000000002,-0.4574685764396375,-0.015784858228588133,-0.18137971353405438
1748435686.4183776,0.99308,-0.050142,0.14945,1.0325000000000002,-2.5725000000000002,1.12,-0.4574685764396375,-0.015784858228588133,-0.18137971353405438
1748435686.4232554,0.999424,-0.046116,0.15433,1.05,-2.3975000000000004,0.77,-0.4484068985676703,-0.0070154925460391695,-0.17451037708272435
1748435686.4281352,0.99857,-0.042456,0.157746,0.9625000000000001,-2.1175,0.6125,-0.4484068985676703,-0.0070154925460391695,-0.17451037708272435
1748435686.4330127,0.983808,-0.040015999999999996,0.161406,0.9625000000000001,-1.2075,0.7175,-0.4484068985676703,-0.0070154925460391695,-0.17451037708272435
1748435686.4378998,0.9755119999999999,-0.036966,0.165432,0.9275000000000001,-1.1375000000000002,0.7350000000000001,-0.4484068985676703,-0.0070154925460391695,-0.17451037708272435
1748435686.4427931,0.977098,-0.040626,0.168482,1.0325000000000002,-1.2075,0.665,-0.4484068985676703,-0.0070154925460391695,-0.17451037708272435
1748435686.4484036,1.005158,-0.04087,0.154452,0.9625000000000001,-0.7000000000000001,0.56,-0.4484068985676703,-0.0070154925460391695,-0.17451037708272435
1748435686.4525783,1.005158,-0.04087,0.152134,0.9100000000000001,-0.07,0.2625,-0.4484068985676703,-0.0070154925460391695,-0.17451037708272435
1748435686.4574516,0.99857,-0.041602,0.15067,0.8400000000000001,0.2625,0.24500000000000002,-0.4484068985676703,-0.0070154925460391695,-0.17451037708272435
1748435686.4623313,0.986858,-0.04392,0.137006,0.7875000000000001,0.31500000000000006,0.31500000000000006,-0.4484068985676703,-0.0070154925460391695,-0.17451037708272435
1748435686.467222,0.986126,-0.044164,0.138348,0.5775,0.7000000000000001,0.3325,-0.4484068985676703,-0.0070154925460391695,-0.17451037708272435
1748435686.4721048,0.988566,-0.045262,0.127246,0.42000000000000004,0.49000000000000005,0.052500000000000005,-0.45776088862905584,-0.00935399006138556,-0.1740719087985969
1748435686.4769812,0.98759,-0.043066,0.13176,0.17500000000000002,1.2600000000000002,0.43750000000000006,-0.45776088862905584,-0.00935399006138556,-0.1740719087985969
1748435686.481876,0.989054,-0.04392,0.129076,0.052500000000000005,1.2425000000000002,0.07,-0.45776088862905584,-0.00935399006138556,-0.1740719087985969
1748435686.486766,0.98942,-0.041479999999999996,0.13480999999999999,0.07,1.3650000000000002,-0.14,-0.45776088862905584,-0.00935399006138556,-0.1740719087985969
1748435686.4916518,0.995764,-0.043798,0.12871,0.14,1.05,-0.17500000000000002,-0.45776088862905584,-0.00935399006138556,-0.1740719087985969
1748435686.496543,1.003206,-0.042456,0.128466,0.052500000000000005,1.0675000000000001,-0.29750000000000004,-0.45776088862905584,-0.00935399006138556,-0.1740719087985969
1748435686.5080717,0.996374,-0.041479999999999996,0.12688,-0.10500000000000001,0.8575,-0.08750000000000001,-0.45776088862905584,-0.00935399006138556,-0.1740719087985969
1748435686.5113385,1.00345,-0.044286,0.12871,-0.21000000000000002,0.35000000000000003,-0.17500000000000002,-0.45776088862905584,-0.00935399006138556,-0.1740719087985969
1748435686.5162077,1.002718,-0.038551999999999996,0.138958,-0.22750000000000004,0.08750000000000001,-0.43750000000000006,-0.45776088862905584,-0.00935399006138556,-0.18342589885998245
1748435686.5210817,1.010648,-0.043188,0.12627,-0.3325,-0.7525000000000001,-0.5950000000000001,-0.4565916398713826,-0.006430868167202572,-0.18342589885998245
1748435686.5259662,1.016992,-0.040626,0.126148,-0.28,-0.42000000000000004,-0.28,-0.4565916398713826,-0.006430868167202572,-0.18342589885998245
1748435686.5308418,1.020408,-0.035746,0.120414,-0.36750000000000005,-0.07,-0.45500000000000007,-0.4565916398713826,-0.006430868167202572,-0.18342589885998245
1748435686.5357294,0.99918,-0.034892,0.13237,-0.385,0.1925,-0.6125,-0.4565916398713826,-0.006430868167202572,-0.18342589885998245
1748435686.5406046,0.988444,-0.038551999999999996,0.12895399999999999,-0.42000000000000004,-0.15750000000000003,-0.56,-0.4565916398713826,-0.006430868167202572,-0.18342589885998245
1748435686.5454836,0.999424,-0.034404,0.121268,-0.6300000000000001,-0.42000000000000004,-0.385,-0.4565916398713826,-0.006430868167202572,-0.18342589885998245
1748435686.550371,1.006866,-0.029523999999999998,0.12395199999999999,-0.6475000000000001,-0.4025,-0.1925,-0.4565916398713826,-0.006430868167202572,-0.18342589885998245
1748435686.5552611,1.011258,-0.033062,0.098942,-0.5425000000000001,-0.5075000000000001,-0.21000000000000002,-0.4565916398713826,-0.006430868167202572,-0.18342589885998245
1748435686.5629835,1.000766,-0.040748,0.133102,-0.525,-0.24500000000000002,-0.28,-0.4565916398713826,-0.006430868167202572,-0.18342589885998245
1748435686.5662065,0.997838,-0.04453,0.125782,-0.49000000000000005,-0.47250000000000003,-0.15750000000000003,-0.45308389359836304,-0.0070154925460391695,-0.18181818181818182
1748435686.5710871,0.9983259999999999,-0.039284,0.12895399999999999,-0.42000000000000004,-1.12,-0.5775,-0.45308389359836304,-0.0070154925460391695,-0.18181818181818182
1748435686.5759618,1.000644,-0.045994,0.124074,-0.5950000000000001,-0.5950000000000001,0.31500000000000006,-0.45308389359836304,-0.0070154925460391695,-0.18181818181818182
1748435686.5808356,1.00406,-0.047214,0.128466,-0.6475000000000001,-0.7350000000000001,0.12250000000000001,-0.45308389359836304,-0.0070154925460391695,-0.18181818181818182
1748435686.5857174,0.999058,-0.051727999999999996,0.122488,-0.6300000000000001,-0.6825000000000001,0.08750000000000001,-0.45308389359836304,-0.0070154925460391695,-0.18181818181818182
1748435686.590611,0.99918,-0.046604,0.127856,-0.5075000000000001,-0.6475000000000001,0.10500000000000001,-0.45308389359836304,-0.0070154925460391695,-0.18181818181818182
1748435686.5954988,0.989054,-0.052826,0.124928,-0.36750000000000005,-0.6125,0.12250000000000001,-0.45308389359836304,-0.0070154925460391695,-0.18181818181818182
1748435686.6003797,1.000766,-0.053436,0.138836,-0.29750000000000004,-0.665,-0.0175,-0.45308389359836304,-0.0070154925460391695,-0.18181818181818182
1748435686.6052568,0.9995459999999999,-0.050263999999999996,0.127124,-0.21000000000000002,-0.7875000000000001,-0.12250000000000001,-0.45308389359836304,-0.0070154925460391695,-0.18181818181818182
1748435686.610142,0.9964959999999999,-0.047824,0.13298,-0.21000000000000002,-0.5775,-0.31500000000000006,-0.45308389359836304,-0.0070154925460391695,-0.18181818181818182
1748435686.6162014,0.996252,-0.047335999999999996,0.130418,-0.6300000000000001,-0.8400000000000001,-0.8925000000000001,-0.45483776673487286,-0.013446360713241743,-0.17509500146156096
1748435686.6199212,0.990274,-0.045018,0.130418,-0.6300000000000001,-0.8400000000000001,-0.8925000000000001,-0.45483776673487286,-0.013446360713241743,-0.17509500146156096
1748435686.6247854,0.987224,-0.038796,0.137494,-0.7000000000000001,-0.35000000000000003,-0.385,-0.45483776673487286,-0.013446360713241743,-0.17509500146156096
1748435686.6296756,0.9897859999999999,-0.044407999999999996,0.133468,-1.2075,-0.07,-0.47250000000000003,-0.45483776673487286,-0.013446360713241743,-0.17509500146156096
1748435686.634564,0.9943,-0.039894,0.1281,-1.5575,0.35000000000000003,-0.4025,-0.45483776673487286,-0.013446360713241743,-0.17509500146156096
1748435686.6394522,0.99552,-0.046726,0.131516,-1.7675,0.8575,-0.49000000000000005,-0.45483776673487286,-0.013446360713241743,-0.17509500146156096
1748435686.6443355,0.987834,-0.044407999999999996,0.133346,-1.9600000000000002,1.0150000000000001,-0.5425000000000001,-0.45483776673487286,-0.013446360713241743,-0.17509500146156096
1748435686.649213,0.987956,-0.039406,0.132736,-2.1700000000000004,1.2600000000000002,-0.5950000000000001,-0.45483776673487286,-0.013446360713241743,-0.17509500146156096
1748435686.6541016,0.988078,-0.048556,0.135176,-2.24,1.4700000000000002,-0.42000000000000004,-0.45483776673487286,-0.013446360713241743,-0.17509500146156096
1748435686.6589904,0.995398,-0.046726,0.135908,-2.1875,1.4700000000000002,-0.36750000000000005,-0.45483776673487286,-0.013446360713241743,-0.17509500146156096
1748435686.6638787,1.004426,-0.048799999999999996,0.125538,-2.1,1.1375000000000002,-0.5775,-0.45249926921952643,-0.0008769365682548962,-0.1778719672610348
1748435686.6694834,1.00284,-0.048556,0.126636,-2.0825,1.5575,-0.47250000000000003,-0.45249926921952643,-0.0008769365682548962,-0.1778719672610348
1748435686.673637,0.993812,-0.042456,0.121146,-2.0475000000000003,1.8200000000000003,-0.1925,-0.45249926921952643,-0.0008769365682548962,-0.1778719672610348
1748435686.6785161,0.993934,-0.053801999999999996,0.1098,-2.205,1.4875,-0.42000000000000004,-0.45249926921952643,-0.0008769365682548962,-0.1778719672610348
1748435686.6834037,0.96258,-0.043188,0.113704,-2.2575000000000003,2.0475000000000003,-0.28,-0.45249926921952643,-0.0008769365682548962,-0.1778719672610348
1748435686.6882877,0.964044,-0.056119999999999996,0.113094,-2.3275,1.4000000000000001,0.28,-0.45249926921952643,-0.0008769365682548962,-0.1778719672610348
1748435686.6931646,0.985394,-0.049166,0.094184,-2.4675000000000002,0.6300000000000001,0.08750000000000001,-0.45249926921952643,-0.0008769365682548962,-0.1778719672610348
1748435686.6980433,0.990274,-0.044042,0.098942,-2.7125000000000004,1.225,0.24500000000000002,-0.45249926921952643,-0.0008769365682548962,-0.1778719672610348
1748435686.7029333,0.97844,-0.05063,0.103944,-2.9925,1.2775,0.5950000000000001,-0.45249926921952643,-0.0008769365682548962,-0.1778719672610348
1748435686.707816,0.966484,-0.045384,0.116144,-3.2375000000000003,1.155,0.5425000000000001,-0.45249926921952643,-0.0008769365682548962,-0.1778719672610348
1748435686.7126906,0.969046,-0.048434,0.116876,-3.3075,0.385,0.8575,-0.45016077170418006,-0.007600116924875768,-0.1806489330605086
1748435686.7175722,0.986126,-0.05002,0.129198,-3.2900000000000005,-0.052500000000000005,0.7000000000000001,-0.45016077170418006,-0.007600116924875768,-0.1806489330605086
1748435686.7231839,0.999424,-0.045384,0.130418,-3.08,0.0175,1.05,-0.45016077170418006,-0.007600116924875768,-0.1806489330605086
1748435686.7273388,1.000888,-0.044774,0.147864,-3.08,0.0175,1.05,-0.45016077170418006,-0.007600116924875768,-0.1806489330605086
1748435686.7322204,1.006134,-0.044042,0.142862,-2.7825,-0.6300000000000001,0.525,-0.45016077170418006,-0.007600116924875768,-0.1806489330605086
1748435686.7370977,1.009428,-0.034892,0.142252,-2.345,-0.43750000000000006,0.7525000000000001,-0.45016077170418006,-0.007600116924875768,-0.1806489330605086
1748435686.7419791,1.000766,-0.034526,0.144082,-1.8900000000000001,-0.6125,1.05,-0.45016077170418006,-0.007600116924875768,-0.1806489330605086
1748435686.7468684,0.998082,-0.033306,0.145058,-1.6625,-0.7875000000000001,1.3125000000000002,-0.45016077170418006,-0.007600116924875768,-0.1806489330605086
1748435686.7517514,0.999668,-0.034892,0.141398,-1.435,-0.45500000000000007,1.435,-0.45016077170418006,-0.007600116924875768,-0.1806489330605086
1748435686.756633,1.000522,-0.040015999999999996,0.130418,-1.225,-0.7525000000000001,1.5225000000000002,-0.45016077170418006,-0.007600116924875768,-0.1806489330605086
1748435686.7615106,1.003938,-0.035746,0.129808,-1.05,-0.5425000000000001,1.1725,-0.4463607132417422,-0.0040923706518561824,-0.16895644548377667
1748435686.7663944,0.995398,-0.037576,0.12895399999999999,-0.9625000000000001,0.052500000000000005,1.9075000000000002,-0.4463607132417422,-0.0040923706518561824,-0.16895644548377667
1748435686.771285,0.990274,-0.03538,0.13054,-0.805,0.1925,1.9425000000000001,-0.4463607132417422,-0.0040923706518561824,-0.16895644548377667
1748435686.7768974,0.993934,-0.039894,0.12627,-0.7175,-0.052500000000000005,2.0475000000000003,-0.4463607132417422,-0.0040923706518561824,-0.16895644548377667
1748435686.7810445,0.999912,-0.039406,0.13078399999999998,-0.5775,0.12250000000000001,2.1875,-0.4463607132417422,-0.0040923706518561824,-0.16895644548377667
1748435686.78593,1.000644,-0.043554,0.123708,-0.49000000000000005,-0.28,2.0125,-0.4463607132417422,-0.0040923706518561824,-0.16895644548377667
1748435686.790818,0.998692,-0.041602,0.1281,-0.36750000000000005,-0.12250000000000001,2.1,-0.4463607132417422,-0.0040923706518561824,-0.16895644548377667
1748435686.7956994,0.993934,-0.043432,0.123098,-0.29750000000000004,-0.36750000000000005,2.2750000000000004,-0.4463607132417422,-0.0040923706518561824,-0.16895644548377667
1748435686.800576,0.992714,-0.04209,0.126636,-0.29750000000000004,-0.56,2.2225,-0.4463607132417422,-0.0040923706518561824,-0.16895644548377667
1748435686.805454,0.99796,-0.04636,0.120292,-0.28,-0.7875000000000001,2.345,-0.4463607132417422,-0.0040923706518561824,-0.16895644548377667
1748435686.810343,0.99491,-0.043188,0.1281,-0.1925,-0.805,2.2575000000000003,-0.4600993861444022,-0.002630809704764689,-0.17509500146156096
1748435686.81522,0.9946659999999999,-0.04209,0.133102,0.07,-1.1025,2.2925000000000004,-0.4600993861444022,-0.002630809704764689,-0.17509500146156096
1748435686.8201053,0.997472,-0.035258,0.140544,0.36750000000000005,-0.8925000000000001,2.5375,-0.4600993861444022,-0.002630809704764689,-0.17509500146156096
1748435686.824982,1.001986,-0.035013999999999997,0.13541999999999998,0.7875000000000001,-1.4875,2.24,-0.4600993861444022,-0.002630809704764689,-0.17509500146156096
1748435686.830592,1.006378,-0.033184,0.14213,1.0325000000000002,-1.8900000000000001,2.0825,-0.4600993861444022,-0.002630809704764689,-0.17509500146156096
1748435686.83477,1.011624,-0.037454,0.135542,1.2600000000000002,-1.8900000000000001,2.0825,-0.4600993861444022,-0.002630809704764689,-0.17509500146156096
1748435686.8396497,1.011258,-0.033306,0.137494,1.4000000000000001,-2.0650000000000004,1.6275000000000002,-0.4600993861444022,-0.002630809704764689,-0.17509500146156096
1748435686.8445272,1.010282,-0.033549999999999996,0.13480999999999999,1.4525000000000001,-2.3275,1.5225000000000002,-0.4600993861444022,-0.002630809704764689,-0.17509500146156096
1748435686.8493924,1.007232,-0.033672,0.135786,1.4525000000000001,-2.415,1.2950000000000002,-0.4600993861444022,-0.002630809704764689,-0.17509500146156096
1748435686.854278,1.004304,-0.033549999999999996,0.125416,1.4525000000000001,-2.1875,1.1375000000000002,-0.4600993861444022,-0.002630809704764689,-0.17509500146156096
1748435686.8591666,1.004548,-0.030987999999999998,0.12383,1.435,-2.0825,0.8575,-0.4565916398713826,-0.005846243788365975,-0.17246419175679625
1748435686.8640492,0.99857,-0.028791999999999998,0.127734,1.2425000000000002,-1.2775,1.435,-0.4565916398713826,-0.005846243788365975,-0.17246419175679625
1748435686.8689237,0.984418,-0.031598,0.12444,1.1025,-1.3825,1.435,-0.4565916398713826,-0.005846243788365975,-0.17246419175679625
1748435686.8738074,0.98454,-0.028182,0.131394,0.9275000000000001,-1.3475000000000001,1.3650000000000002,-0.4565916398713826,-0.005846243788365975,-0.17246419175679625
1748435686.8786998,0.9934459999999999,-0.036966,0.133834,0.7350000000000001,-1.435,1.4000000000000001,-0.4565916398713826,-0.005846243788365975,-0.17246419175679625
1748435686.8843105,1.006866,-0.037454,0.136762,0.5775,-1.5575,1.2600000000000002,-0.4565916398713826,-0.005846243788365975,-0.17246419175679625
1748435686.888468,1.007842,-0.038064,0.130662,0.36750000000000005,-1.3125000000000002,1.2775,-0.4565916398713826,-0.005846243788365975,-0.17246419175679625
1748435686.8933449,0.99552,-0.037942,0.144936,0.17500000000000002,-1.2775,1.155,-0.4565916398713826,-0.005846243788365975,-0.17246419175679625
1748435686.8982265,0.9983259999999999,-0.04514,0.14066599999999999,0.07,-1.4875,1.2950000000000002,-0.4565916398713826,-0.005846243788365975,-0.17246419175679625
1748435686.9031038,0.99918,-0.047702,0.140788,0.0,-1.5575,1.225,-0.4565916398713826,-0.005846243788365975,-0.17246419175679625
1748435686.9079888,0.995642,-0.052948,0.142252,-0.0175,-1.3475000000000001,0.9800000000000001,-0.44694533762057875,-0.006723180356620871,-0.1743642209880152
1748435686.9128637,0.99613,-0.049532,0.140422,-0.0175,-1.2075,1.435,-0.44694533762057875,-0.006723180356620871,-0.1743642209880152
1748435686.917764,0.990762,-0.051484,0.139934,0.10500000000000001,-0.7875000000000001,1.4700000000000002,-0.44694533762057875,-0.006723180356620871,-0.1743642209880152
1748435686.922638,0.985394,-0.047945999999999996,0.14835199999999998,0.29750000000000004,-0.6300000000000001,1.4875,-0.44694533762057875,-0.006723180356620871,-0.1743642209880152
1748435686.9275243,0.992714,-0.04758,0.143228,0.6825000000000001,-0.6475000000000001,1.54,-0.44694533762057875,-0.006723180356620871,-0.1743642209880152
1748435686.9324064,1.000278,-0.045871999999999996,0.142008,0.9625000000000001,-0.7000000000000001,1.6275000000000002,-0.44694533762057875,-0.006723180356620871,-0.1743642209880152
1748435686.9380212,1.004426,-0.049044,0.143716,1.33,-0.4025,1.5575,-0.44694533762057875,-0.006723180356620871,-0.1743642209880152
1748435686.9421737,1.005158,-0.049288,0.13786,1.61,-0.4025,1.5575,-0.44694533762057875,-0.006723180356620871,-0.1743642209880152
1748435686.9470587,1.001132,-0.05002,0.14249599999999998,1.6625,-0.35000000000000003,1.2600000000000002,-0.44694533762057875,-0.006723180356620871,-0.1743642209880152
1748435686.951934,1.001132,-0.051606,0.135664,1.7325000000000002,-0.5425000000000001,1.3125000000000002,-0.44694533762057875,-0.006723180356620871,-0.1743642209880152
1748435686.956811,0.9995459999999999,-0.053924,0.13298,1.715,-0.9275000000000001,1.2600000000000002,-0.4580532008184741,-0.00964630225080386,-0.1809412452499269
1748435686.961688,1.000522,-0.050386,0.13078399999999998,1.4175000000000002,-0.525,1.5925000000000002,-0.4580532008184741,-0.00964630225080386,-0.1809412452499269
1748435686.966581,1.000888,-0.050996,0.126636,1.2425000000000002,-0.5950000000000001,1.33,-0.4580532008184741,-0.00964630225080386,-0.1809412452499269
1748435686.9714618,1.000034,-0.04819,0.122366,1.1375000000000002,-0.385,1.2075,-0.4580532008184741,-0.00964630225080386,-0.1809412452499269
1748435686.9763443,0.9681919999999999,-0.048068,0.11699799999999999,0.9625000000000001,-0.43750000000000006,1.1725,-0.4580532008184741,-0.00964630225080386,-0.1809412452499269
1748435686.9812243,0.996984,-0.044652,0.12017,0.8225000000000001,-0.28,1.0675000000000001,-0.4580532008184741,-0.00964630225080386,-0.1809412452499269
1748435686.9861104,0.993812,-0.047458,0.115656,0.665,-0.36750000000000005,1.1025,-0.4580532008184741,-0.00964630225080386,-0.1809412452499269
1748435686.9917414,0.991738,-0.04453,0.123464,0.5425000000000001,-0.17500000000000002,0.9975,-0.4580532008184741,-0.00964630225080386,-0.1809412452499269
1748435686.995876,0.992104,-0.049044,0.123586,0.385,-0.35000000000000003,1.05,-0.4580532008184741,-0.00964630225080386,-0.1809412452499269
1748435687.0007575,0.995032,-0.046238,0.127246,0.31500000000000006,-0.5075000000000001,0.7525000000000001,-0.4580532008184741,-0.00964630225080386,-0.1809412452499269
1748435687.0056345,0.997472,-0.046848,0.127124,0.24500000000000002,-0.7175,0.56,-0.44899152294650685,-0.005261619409529378,-0.17567962584039754
1748435687.0105278,0.995642,-0.044164,0.133712,0.07,-0.10500000000000001,1.0850000000000002,-0.44899152294650685,-0.005261619409529378,-0.17567962584039754
1748435687.0154147,0.991372,-0.04453,0.134566,-0.035,-0.21000000000000002,0.9625000000000001,-0.44899152294650685,-0.005261619409529378,-0.17567962584039754
1748435687.0202951,0.990762,-0.041846,0.1403,-0.08750000000000001,-0.052500000000000005,0.9800000000000001,-0.44899152294650685,-0.005261619409529378,-0.17567962584039754
1748435687.0251703,0.9934459999999999,-0.043554,0.140544,-0.08750000000000001,-0.1925,1.05,-0.44899152294650685,-0.005261619409529378,-0.17567962584039754
1748435687.0300658,1.001742,-0.040382,0.14335,0.0175,-0.07,0.9450000000000001,-0.44899152294650685,-0.005261619409529378,-0.17567962584039754
1748435687.0349495,1.006622,-0.042212,0.136762,-0.0175,0.052500000000000005,0.7875000000000001,-0.44899152294650685,-0.005261619409529378,-0.17567962584039754
1748435687.0398362,1.003572,-0.041479999999999996,0.14652199999999999,0.035,0.31500000000000006,0.6125,-0.44899152294650685,-0.005261619409529378,-0.17567962584039754
1748435687.045453,0.9971059999999999,-0.041846,0.143716,0.12250000000000001,0.385,0.5950000000000001,-0.44899152294650685,-0.005261619409529378,-0.17567962584039754
1748435687.049598,0.998448,-0.040504,0.14152,0.15750000000000003,0.5075000000000001,0.5950000000000001,-0.44899152294650685,-0.007307804735457469,-0.18006430868167203
1748435687.05449,0.99552,-0.040992,0.138104,0.15750000000000003,0.31500000000000006,0.035,-0.45688395206080096,-0.007307804735457469,-0.18006430868167203
1748435687.059375,0.9989359999999999,-0.041236,0.143716,0.0,0.45500000000000007,0.45500000000000007,-0.45688395206080096,-0.007307804735457469,-0.18006430868167203
1748435687.0642557,0.999668,-0.045871999999999996,0.135664,-0.035,1.0850000000000002,0.2625,-0.45688395206080096,-0.007307804735457469,-0.18006430868167203
1748435687.069134,0.9891759999999999,-0.039406,0.14457,-0.15750000000000003,1.1025,0.42000000000000004,-0.45688395206080096,-0.007307804735457469,-0.18006430868167203
1748435687.0740173,0.986248,-0.040504,0.138836,-0.08750000000000001,1.1375000000000002,0.47250000000000003,-0.45688395206080096,-0.007307804735457469,-0.18006430868167203
1748435687.078905,0.987224,-0.035502,0.1403,-0.15750000000000003,1.1725,0.5425000000000001,-0.45688395206080096,-0.007307804735457469,-0.18006430868167203
1748435687.083787,0.9903959999999999,-0.040504,0.136274,-0.2625,1.3125000000000002,0.525,-0.45688395206080096,-0.007307804735457469,-0.18006430868167203
1748435687.0886633,0.989054,-0.03843,0.134444,-0.28,1.3825,0.49000000000000005,-0.45688395206080096,-0.007307804735457469,-0.18006430868167203
1748435687.0935426,0.989664,-0.037698,0.136762,-0.29750000000000004,1.3475000000000001,0.4025,-0.45688395206080096,-0.007307804735457469,-0.18006430868167203
1748435687.099175,0.994178,-0.04087,0.132858,-0.29750000000000004,1.2775,0.29750000000000004,-0.44343759134755917,-0.007892429114294067,-0.17641040631394328
1748435687.1033065,0.996008,-0.037698,0.135298,-0.35000000000000003,0.9800000000000001,-0.052500000000000005,-0.44343759134755917,-0.007892429114294067,-0.17641040631394328
1748435687.1081882,0.99613,-0.04087,0.13115,-0.385,1.3650000000000002,0.385,-0.44343759134755917,-0.007892429114294067,-0.17641040631394328
1748435687.1130676,0.99369,-0.038064,0.13359,-0.35000000000000003,1.2425000000000002,0.10500000000000001,-0.44343759134755917,-0.007892429114294067,-0.17641040631394328
1748435687.1179512,0.99186,-0.044652,0.135908,-0.35000000000000003,1.155,0.12250000000000001,-0.44343759134755917,-0.007892429114294067,-0.17641040631394328
1748435687.1228385,0.996252,-0.045018,0.138592,-0.36750000000000005,1.05,0.15750000000000003,-0.44343759134755917,-0.007892429114294067,-0.17641040631394328
1748435687.1277213,0.9977159999999999,-0.037454,0.12993,-0.36750000000000005,1.155,0.21000000000000002,-0.44343759134755917,-0.007892429114294067,-0.17641040631394328
1748435687.1326,0.988444,-0.034404,0.138226,-0.3325,1.4525000000000001,0.42000000000000004,-0.44343759134755917,-0.007892429114294067,-0.17641040631394328
1748435687.137478,0.9891759999999999,-0.04514,0.14774199999999998,-0.1925,1.4525000000000001,0.525,-0.44343759134755917,-0.007892429114294067,-0.17641040631394328
1748435687.1423662,1.010648,-0.045018,0.134322,0.035,1.05,0.36750000000000005,-0.44343759134755917,-0.007892429114294067,-0.17641040631394328
1748435687.1472528,1.013454,-0.044042,0.126392,0.15750000000000003,1.5750000000000002,0.28,-0.45103770827243495,-0.001169248757673195,-0.17772581116632563
1748435687.1528857,0.995032,-0.046238,0.150792,0.29750000000000004,1.995,0.77,-0.45103770827243495,-0.001169248757673195,-0.17772581116632563
1748435687.157016,0.9916159999999999,-0.045262,0.134932,0.5425000000000001,1.8725000000000003,0.77,-0.45103770827243495,-0.001169248757673195,-0.17772581116632563
1748435687.1618989,0.9983259999999999,-0.047092,0.13786,0.7175,1.8025000000000002,0.35000000000000003,-0.45103770827243495,-0.001169248757673195,-0.17772581116632563
1748435687.1667879,1.000156,-0.043676,0.127124,0.805,1.8375000000000001,0.665,-0.45103770827243495,-0.001169248757673195,-0.17772581116632563
1748435687.1716733,1.003816,-0.042456,0.125416,0.7525000000000001,1.6450000000000002,0.5425000000000001,-0.45103770827243495,-0.001169248757673195,-0.17772581116632563
1748435687.1765597,1.000522,-0.055388,0.122732,0.6825000000000001,1.7325000000000002,0.10500000000000001,-0.45103770827243495,-0.001169248757673195,-0.17772581116632563
1748435687.1814342,1.014064,-0.05734,0.125294,0.7350000000000001,1.7675,-0.14,-0.45103770827243495,-0.001169248757673195,-0.17772581116632563
1748435687.1863148,1.005036,-0.049654,0.114436,0.5425000000000001,2.205,0.0,-0.45103770827243495,-0.001169248757673195,-0.17772581116632563
1748435687.191203,0.985028,-0.046238,0.12932,0.4025,2.0475000000000003,0.45500000000000007,-0.45103770827243495,-0.001169248757673195,-0.17772581116632563
1748435687.196078,0.968924,-0.053191999999999996,0.142374,0.47250000000000003,1.3650000000000002,0.49000000000000005,-0.4498684595147618,-0.0070154925460391695,-0.1775796550716165
1748435687.2009633,1.009794,-0.05917,0.133102,0.4025,0.6825000000000001,0.6300000000000001,-0.4498684595147618,-0.0070154925460391695,-0.1775796550716165
1748435687.2065911,1.02358,-0.053558,0.13017399999999998,0.385,1.3650000000000002,0.7175,-0.4498684595147618,-0.0070154925460391695,-0.1775796550716165
1748435687.2107291,1.000522,-0.049409999999999996,0.142374,0.22750000000000004,2.205,0.43750000000000006,-0.4498684595147618,-0.0070154925460391695,-0.1775796550716165
1748435687.2156055,0.980026,-0.045384,0.150548,0.24500000000000002,1.7500000000000002,0.4025,-0.4498684595147618,-0.0070154925460391695,-0.1775796550716165
1748435687.220489,0.981246,-0.046238,0.146644,0.29750000000000004,1.3650000000000002,0.6125,-0.4498684595147618,-0.0070154925460391695,-0.1775796550716165
1748435687.2253673,1.001986,-0.045384,0.143838,0.4025,1.0850000000000002,0.665,-0.4498684595147618,-0.0070154925460391695,-0.1775796550716165
1748435687.2302542,1.014186,-0.047335999999999996,0.134688,0.43750000000000006,1.2950000000000002,0.6475000000000001,-0.4498684595147618,-0.0070154925460391695,-0.1775796550716165
1748435687.2351477,1.002108,-0.040138,0.143472,0.43750000000000006,1.8725000000000003,0.42000000000000004,-0.4498684595147618,-0.0070154925460391695,-0.1775796550716165
1748435687.240024,0.9922259999999999,-0.041724,0.143228,0.43750000000000006,2.1525000000000003,0.24500000000000002,-0.4498684595147618,-0.0070154925460391695,-0.1775796550716165
1748435687.2449012,0.990884,-0.038551999999999996,0.137738,0.47250000000000003,2.0825,0.12250000000000001,-0.4513300204618533,-0.006723180356620871,-0.17904121601870798
1748435687.2497835,0.993934,-0.041479999999999996,0.133346,0.385,1.9600000000000002,-0.28,-0.4513300204618533,-0.006723180356620871,-0.17904121601870798
1748435687.254678,0.9952759999999999,-0.038674,0.135176,0.47250000000000003,2.6250000000000004,0.3325,-0.4513300204618533,-0.006723180356620871,-0.17904121601870798
1748435687.260306,0.989908,-0.043554,0.136884,0.4025,2.66,4.4625,-0.4513300204618533,-0.006723180356620871,-0.17904121601870798
1748435687.2644491,0.9958859999999999,-0.041358,0.139446,0.5425000000000001,2.6425,0.052500000000000005,-0.4513300204618533,-0.006723180356620871,-0.17904121601870798
1748435687.2693274,1.000034,-0.047824,0.138226,0.5075000000000001,2.4675000000000002,-0.31500000000000006,-0.4513300204618533,-0.006723180356620871,-0.17904121601870798
1748435687.2742076,1.002474,-0.04575,0.139568,0.49000000000000005,2.4675000000000002,-0.2625,-0.4513300204618533,-0.006723180356620871,-0.17904121601870798
1748435687.2790956,1.006744,-0.046726,0.13480999999999999,0.49000000000000005,2.4325,-0.35000000000000003,-0.4513300204618533,-0.006723180356620871,-0.17904121601870798
1748435687.2839773,1.006378,-0.046604,0.137006,0.43750000000000006,2.3975000000000004,-0.17500000000000002,-0.4513300204618533,-0.006723180356620871,-0.17904121601870798
1748435687.288853,1.008818,-0.049654,0.14091,0.385,1.995,0.08750000000000001,-0.4513300204618533,-0.006723180356620871,-0.17904121601870798
1748435687.2937434,1.015772,-0.051727999999999996,0.133224,0.385,2.0650000000000004,-0.10500000000000001,-0.4492838351359252,-0.007307804735457469,-0.176118094124525
1748435687.2986183,1.011868,-0.048799999999999996,0.13419999999999999,0.5075000000000001,2.0825,0.5775,-0.4492838351359252,-0.007307804735457469,-0.176118094124525
1748435687.303502,1.010404,-0.049532,0.130906,0.45500000000000007,2.2225,0.525,-0.4492838351359252,-0.007307804735457469,-0.176118094124525
1748435687.3083854,1.00467,-0.053558,0.128222,0.45500000000000007,1.9425000000000001,0.525,-0.4492838351359252,-0.007307804735457469,-0.176118094124525
1748435687.3139954,1.005036,-0.05124,0.12895399999999999,0.45500000000000007,1.8025000000000002,0.7175,-0.4492838351359252,-0.007307804735457469,-0.176118094124525
1748435687.3181443,0.9971059999999999,-0.050873999999999996,0.123586,0.42000000000000004,1.5750000000000002,0.8925000000000001,-0.4492838351359252,-0.007307804735457469,-0.176118094124525
1748435687.3230321,1.002108,-0.047458,0.12505,0.4025,1.33,0.8925000000000001,-0.4492838351359252,-0.007307804735457469,-0.176118094124525
1748435687.3279169,0.996252,-0.05246,0.119194,0.35000000000000003,1.2775,1.12,-0.4492838351359252,-0.007307804735457469,-0.176118094124525
1748435687.3327918,0.9852719999999999,-0.050508,0.12956399999999998,0.36750000000000005,1.2600000000000002,1.225,-0.4492838351359252,-0.007307804735457469,-0.176118094124525
1748435687.3376703,0.989054,-0.052704,0.125538,0.4025,0.6300000000000001,1.2075,-0.4492838351359252,-0.007307804735457469,-0.176118094124525
1748435687.3425632,0.994178,-0.051484,0.123708,0.36750000000000005,0.5075000000000001,0.9450000000000001,-0.45425314235603625,-0.0070154925460391695,-0.18181818181818182
1748435687.3474395,0.9958859999999999,-0.048312,0.128588,0.29750000000000004,0.35000000000000003,0.7000000000000001,-0.45425314235603625,-0.0070154925460391695,-0.18181818181818182
1748435687.352326,0.9989359999999999,-0.047458,0.129808,0.2625,0.7175,1.2075,-0.45425314235603625,-0.0070154925460391695,-0.18181818181818182
1748435687.3572016,0.992714,-0.045018,0.130052,0.2625,0.6300000000000001,0.9800000000000001,-0.45425314235603625,-0.0070154925460391695,-0.18181818181818182
1748435687.362091,0.991494,-0.043188,0.141032,0.4025,0.7000000000000001,0.8400000000000001,-0.45425314235603625,-0.0070154925460391695,-0.18181818181818182
1748435687.3677053,0.99613,-0.042456,0.14152,0.6125,0.42000000000000004,0.8925000000000001,-0.45425314235603625,-0.0070154925460391695,-0.18181818181818182
1748435687.3718514,1.005036,-0.039162,0.14396,0.8925000000000001,0.35000000000000003,0.9625000000000001,-0.45425314235603625,-0.0070154925460391695,-0.18181818181818182
1748435687.376741,1.001254,-0.031964,0.144204,0.9800000000000001,0.15750000000000003,0.56,-0.45425314235603625,-0.0070154925460391695,-0.18181818181818182
1748435687.3816144,1.000888,-0.032208,0.149084,0.9800000000000001,0.1925,0.6475000000000001,-0.45425314235603625,-0.0070154925460391695,-0.18181818181818182
1748435687.386492,1.002474,-0.030622,0.145424,0.9450000000000001,0.052500000000000005,0.5425000000000001,-0.45425314235603625,-0.0070154925460391695,-0.18181818181818182
1748435687.3913825,1.000034,-0.032695999999999996,0.14335,0.7875000000000001,0.15750000000000003,0.052500000000000005,-0.4484068985676703,-0.0040923706518561824,-0.1853259280912014
1748435687.3962693,0.9983259999999999,-0.036722,0.139812,0.6825000000000001,0.6475000000000001,0.6125,-0.4484068985676703,-0.0040923706518561824,-0.1853259280912014
1748435687.4011416,0.99796,-0.033549999999999996,0.135908,0.2625,1.2600000000000002,0.49000000000000005,-0.4484068985676703,-0.0040923706518561824,-0.1853259280912014
1748435687.406031,0.98881,-0.03111,0.13786,0.08750000000000001,1.435,0.665,-0.4484068985676703,-0.0040923706518561824,-0.1853259280912014
1748435687.4109046,0.988322,-0.033672,0.14274,-0.08750000000000001,1.6625,0.665,-0.4484068985676703,-0.0040923706518561824,-0.1853259280912014
1748435687.4158034,0.99003,-0.035013999999999997,0.145668,-0.24500000000000002,1.8375000000000001,0.6300000000000001,-0.4484068985676703,-0.0040923706518561824,-0.1853259280912014
1748435687.4214213,0.998692,-0.03904,0.146888,-0.22750000000000004,1.6275000000000002,0.385,-0.4484068985676703,-0.0040923706518561824,-0.1853259280912014
1748435687.4255614,1.009672,-0.0427,0.14396,-0.15750000000000003,1.4875,0.07,-0.4484068985676703,-0.0040923706518561824,-0.1853259280912014
1748435687.430443,1.013088,-0.0427,0.14701,-0.0175,1.33,-0.36750000000000005,-0.4484068985676703,-0.0040923706518561824,-0.1853259280912014
1748435687.4353325,1.00711,-0.0427,0.140544,0.10500000000000001,1.1725,-0.47250000000000003,-0.4484068985676703,-0.0040923706518561824,-0.1853259280912014
1748435687.4402134,0.9946659999999999,-0.039772,0.140544,0.12250000000000001,0.8750000000000001,-0.7000000000000001,-0.45103770827243495,-0.005846243788365975,-0.18634902075416546
1748435687.4450934,0.9755119999999999,-0.044042,0.13725,0.24500000000000002,0.47250000000000003,-0.28,-0.45103770827243495,-0.005846243788365975,-0.18634902075416546
1748435687.4499707,0.985638,-0.05185,0.14091,0.31500000000000006,0.1925,0.5075000000000001,-0.45103770827243495,-0.005846243788365975,-0.18634902075416546
1748435687.454867,0.988932,-0.058682,0.122976,0.45500000000000007,-0.43750000000000006,0.36750000000000005,-0.45103770827243495,-0.005846243788365975,-0.18634902075416546
1748435687.4597433,0.989908,-0.057583999999999996,0.13078399999999998,0.6125,-0.24500000000000002,0.5775,-0.45103770827243495,-0.005846243788365975,-0.18634902075416546
1748435687.464622,0.98027,-0.054168,0.12749,0.6300000000000001,-0.35000000000000003,0.7175,-0.45103770827243495,-0.005846243788365975,-0.18634902075416546
1748435687.469508,0.98637,-0.053801999999999996,0.12444,0.5425000000000001,-0.36750000000000005,0.9450000000000001,-0.45103770827243495,-0.005846243788365975,-0.18634902075416546
1748435687.4810553,0.991738,-0.054046,0.12688,0.36750000000000005,0.35000000000000003,1.6975000000000002,-0.45103770827243495,-0.005846243788365975,-0.18634902075416546
1748435687.4842892,0.99064,-0.046848,0.131638,0.4025,0.45500000000000007,1.6450000000000002,-0.45103770827243495,-0.005846243788365975,-0.18634902075416546
1748435687.4891512,0.9791719999999999,-0.052948,0.135054,0.525,0.6300000000000001,1.5225000000000002,-0.44548377667348726,-0.0014615609470914938,-0.18430283542823736
1748435687.4940386,0.971364,-0.04819,0.148474,0.6825000000000001,0.1925,0.9450000000000001,-0.44548377667348726,-0.0014615609470914938,-0.18430283542823736
1748435687.4989252,0.989908,-0.050752,0.14127599999999998,0.9450000000000001,0.15750000000000003,1.2600000000000002,-0.44548377667348726,-0.0014615609470914938,-0.18430283542823736
1748435687.5038028,1.006744,-0.048922,0.141764,1.0675000000000001,0.36750000000000005,1.2600000000000002,-0.44548377667348726,-0.0014615609470914938,-0.18430283542823736
1748435687.5086787,1.011868,-0.050873999999999996,0.134566,1.33,0.9100000000000001,1.1375000000000002,-0.44548377667348726,-0.0014615609470914938,-0.18430283542823736
1748435687.5135615,1.002108,-0.047945999999999996,0.13359,1.33,1.4000000000000001,1.1375000000000002,-0.44548377667348726,-0.0014615609470914938,-0.18430283542823736
1748435687.5184476,0.9840519999999999,-0.049898,0.136396,1.1725,1.435,1.1375000000000002,-0.44548377667348726,-0.0014615609470914938,-0.18430283542823736
1748435687.5233371,0.9706319999999999,-0.046726,0.130418,1.0675000000000001,1.3475000000000001,1.1900000000000002,-0.44548377667348726,-0.0014615609470914938,-0.18430283542823736
1748435687.5282161,0.981978,-0.045018,0.133224,1.05,1.4525000000000001,1.2075,-0.44548377667348726,-0.0014615609470914938,-0.18430283542823736
1748435687.5359304,0.9916159999999999,-0.045384,0.129076,1.1900000000000002,1.5575,1.2425000000000002,-0.45016077170418006,-0.008184741303712365,-0.18751826951183864
1748435687.5391934,0.9940559999999999,-0.042456,0.133224,1.1725,1.7850000000000001,0.8750000000000001,-0.45016077170418006,-0.008184741303712365,-0.18751826951183864
1748435687.5440636,0.9943,-0.042456,0.134444,1.4525000000000001,1.7325000000000002,1.0850000000000002,-0.45016077170418006,-0.008184741303712365,-0.18751826951183864
1748435687.5489306,0.99186,-0.040504,0.136396,1.7675,1.8550000000000002,0.8925000000000001,-0.45016077170418006,-0.008184741303712365,-0.18751826951183864
1748435687.5538158,0.994178,-0.040504,0.134566,2.1,1.54,0.45500000000000007,-0.45016077170418006,-0.008184741303712365,-0.18751826951183864
1748435687.5587053,1.002352,-0.040992,0.13908,2.4325,1.33,0.14,-0.45016077170418006,-0.008184741303712365,-0.18751826951183864
1748435687.5635903,1.009306,-0.038551999999999996,0.140422,2.6250000000000004,0.9625000000000001,-0.052500000000000005,-0.45016077170418006,-0.008184741303712365,-0.18751826951183864
1748435687.5684707,1.020164,-0.032818,0.13725,2.7475,0.5425000000000001,-0.21000000000000002,-0.45016077170418006,-0.008184741303712365,-0.18751826951183864
1748435687.5733476,1.018212,-0.033306,0.127002,2.7475,0.525,-0.2625,-0.45016077170418006,-0.008184741303712365,-0.18751826951183864
1748435687.5782394,1.002108,-0.030987999999999998,0.138226,2.7300000000000004,0.6300000000000001,4.2525,-0.45016077170418006,-0.008184741303712365,-0.18751826951183864
1748435687.5831265,0.98881,-0.037087999999999996,0.132004,2.66,-0.47250000000000003,0.28,-0.45016077170418006,-0.008184741303712365,-0.19102601578485823
1748435687.5891888,0.999424,-0.04819,0.122488,2.66,-0.5950000000000001,0.8400000000000001,-0.4425606547793043,-0.0029231218941829875,-0.19102601578485823
1748435687.5928988,0.999424,-0.04819,0.122488,2.5725000000000002,-0.15750000000000003,1.0325000000000002,-0.4425606547793043,-0.0029231218941829875,-0.19102601578485823
1748435687.5977707,0.9940559999999999,-0.041968,0.132126,2.3800000000000003,-0.7875000000000001,1.12,-0.4425606547793043,-0.0029231218941829875,-0.19102601578485823
1748435687.6026635,1.00284,-0.045506,0.131028,2.1700000000000004,-0.805,1.1725,-0.4425606547793043,-0.0029231218941829875,-0.19102601578485823
1748435687.6075485,1.006378,-0.04575,0.138836,2.0125,-0.8400000000000001,1.33,-0.4425606547793043,-0.0029231218941829875,-0.19102601578485823
1748435687.6124308,1.005158,-0.045628,0.142374,1.9075000000000002,-1.1025,1.1725,-0.4425606547793043,-0.0029231218941829875,-0.19102601578485823
1748435687.6173093,1.001254,-0.047335999999999996,0.14066599999999999,1.8550000000000002,-1.33,0.9100000000000001,-0.4425606547793043,-0.0029231218941829875,-0.19102601578485823
1748435687.6221983,0.998204,-0.048312,0.146278,1.6625,-1.6450000000000002,0.6825000000000001,-0.4425606547793043,-0.0029231218941829875,-0.19102601578485823
1748435687.6270864,1.002108,-0.052826,0.14396,1.5575,-1.9425000000000001,0.5950000000000001,-0.4425606547793043,-0.0029231218941829875,-0.19102601578485823
1748435687.6319675,1.0004,-0.047824,0.1403,1.3475000000000001,-2.1,0.29750000000000004,-0.4425606547793043,0.003215434083601286,-0.1862028646594563
1748435687.6368425,0.9940559999999999,-0.053801999999999996,0.138714,1.12,-2.1875,0.10500000000000001,-0.4443145279158141,0.003215434083601286,-0.1862028646594563
1748435687.6424565,0.988322,-0.05734,0.137616,0.9100000000000001,-1.715,0.7525000000000001,-0.4443145279158141,0.003215434083601286,-0.1862028646594563
1748435687.6466188,0.984906,-0.056608,0.13237,0.7525000000000001,-1.5925000000000002,0.6300000000000001,-0.4443145279158141,0.003215434083601286,-0.1862028646594563
1748435687.6515086,0.986126,-0.055144,0.134688,0.5775,-1.6975000000000002,0.29750000000000004,-0.4443145279158141,0.003215434083601286,-0.1862028646594563
1748435687.6563854,0.9840519999999999,-0.052337999999999996,0.13176,0.525,-1.5050000000000001,0.43750000000000006,-0.4443145279158141,0.003215434083601286,-0.1862028646594563
1748435687.6612618,0.984784,-0.048922,0.135298,0.43750000000000006,-1.3825,0.3325,-0.4443145279158141,0.003215434083601286,-0.1862028646594563
1748435687.6661422,0.99125,-0.054412,0.136518,0.4025,-1.435,0.22750000000000004,-0.4443145279158141,0.003215434083601286,-0.1862028646594563
1748435687.6710312,0.996008,-0.047824,0.14091,0.49000000000000005,-1.4000000000000001,-0.08750000000000001,-0.4443145279158141,0.003215434083601286,-0.1862028646594563
1748435687.675916,0.99369,-0.045628,0.141642,0.5775,-1.4175000000000002,-0.29750000000000004,-0.4443145279158141,0.003215434083601286,-0.1862028646594563
1748435687.6807885,0.988322,-0.044164,0.146156,0.6300000000000001,-1.435,-0.29750000000000004,-0.44694533762057875,-0.004969307220111079,-0.18430283542823736
1748435687.6856701,0.986126,-0.044042,0.14762,0.805,-1.8550000000000002,-0.665,-0.44694533762057875,-0.004969307220111079,-0.18430283542823736
1748435687.6906004,0.988444,-0.039162,0.144936,0.7875000000000001,-1.8025000000000002,-0.12250000000000001,-0.44694533762057875,-0.004969307220111079,-0.18430283542823736
1748435687.6962345,0.98881,-0.040015999999999996,0.144448,0.7000000000000001,-1.5925000000000002,0.0175,-0.44694533762057875,-0.004969307220111079,-0.18430283542823736
1748435687.7003615,0.991738,-0.040015999999999996,0.144448,0.5075000000000001,-1.3825,-0.15750000000000003,-0.44694533762057875,-0.004969307220111079,-0.18430283542823736
1748435687.7052393,0.992104,-0.041602,0.144936,0.5075000000000001,-1.1725,0.035,-0.44694533762057875,-0.004969307220111079,-0.18430283542823736
1748435687.710118,0.986736,-0.03965,0.15237799999999999,0.35000000000000003,-1.155,0.15750000000000003,-0.44694533762057875,-0.004969307220111079,-0.18430283542823736
1748435687.7150128,0.98881,-0.044652,0.150182,0.14,-1.2075,0.31500000000000006,-0.44694533762057875,-0.004969307220111079,-0.18430283542823736
1748435687.7198904,1.001742,-0.04636,0.153476,-0.08750000000000001,-1.3125000000000002,0.42000000000000004,-0.44694533762057875,-0.004969307220111079,-0.18430283542823736
1748435687.7247643,1.00528,-0.051972,0.147864,-0.31500000000000006,-1.3125000000000002,0.42000000000000004,-0.44694533762057875,-0.004969307220111079,-0.18430283542823736
1748435687.729647,1.006744,-0.051727999999999996,0.148718,-0.5775,-1.2950000000000002,0.2625,-0.4486992107570886,-0.00964630225080386,-0.1847413037123648
1748435687.7345357,1.005402,-0.053558,0.145424,-0.5425000000000001,-1.5575,0.10500000000000001,-0.4486992107570886,-0.00964630225080386,-0.1847413037123648
1748435687.7394242,0.996862,-0.051606,0.142618,-0.5775,-1.1025,0.47250000000000003,-0.4486992107570886,-0.00964630225080386,-0.1847413037123648
1748435687.7443044,0.993934,-0.053558,0.13969,-0.6825000000000001,-1.2775,0.29750000000000004,-0.4486992107570886,-0.00964630225080386,-0.1847413037123648
1748435687.7499385,0.99308,-0.053558,0.131882,-0.56,-1.2600000000000002,0.29750000000000004,-0.4486992107570886,-0.00964630225080386,-0.1847413037123648
1748435687.7540662,0.99308,-0.05429,0.126026,-0.525,-1.0325000000000002,0.56,-0.4486992107570886,-0.00964630225080386,-0.1847413037123648
1748435687.75894,0.99186,-0.054168,0.125172,-0.4025,-1.1375000000000002,0.3325,-0.4486992107570886,-0.00964630225080386,-0.1847413037123648
1748435687.7638245,0.99064,-0.053558,0.120658,-0.31500000000000006,-0.8925000000000001,0.6125,-0.4486992107570886,-0.00964630225080386,-0.1847413037123648
1748435687.7686982,0.982466,-0.052826,0.12749,-0.24500000000000002,-0.5950000000000001,0.665,-0.4486992107570886,-0.00964630225080386,-0.1847413037123648
1748435687.7735798,0.9816119999999999,-0.052094,0.12566,-0.14,-0.8225000000000001,0.8750000000000001,-0.4486992107570886,-0.00964630225080386,-0.1847413037123648
1748435687.7784708,0.98454,-0.049776,0.132492,0.0,-1.0150000000000001,0.8750000000000001,-0.45016077170418006,-0.00935399006138556,-0.1850336159017831
1748435687.783347,0.99247,-0.046604,0.135786,0.21000000000000002,-1.5750000000000002,0.5425000000000001,-0.45016077170418006,-0.00935399006138556,-0.1850336159017831
1748435687.7882335,1.001498,-0.048068,0.13786,0.385,-1.3475000000000001,1.0325000000000002,-0.45016077170418006,-0.00935399006138556,-0.1850336159017831
1748435687.7931125,1.005158,-0.041724,0.144082,0.5775,-1.5225000000000002,0.5950000000000001,-0.45016077170418006,-0.00935399006138556,-0.1850336159017831
1748435687.7979934,1.00467,-0.037576,0.146278,0.805,-1.8550000000000002,0.4025,-0.45016077170418006,-0.00935399006138556,-0.1850336159017831
1748435687.8036063,1.00162,-0.035136,0.14835199999999998,1.1025,-2.2575000000000003,0.28,-0.45016077170418006,-0.00935399006138556,-0.1850336159017831
1748435687.8077638,1.003206,-0.038308,0.14835199999999998,1.0850000000000002,-2.5900000000000003,-0.07,-0.45016077170418006,-0.00935399006138556,-0.1850336159017831
1748435687.8126423,1.006866,-0.038064,0.141398,0.9450000000000001,-2.6075000000000004,0.08750000000000001,-0.45016077170418006,-0.00935399006138556,-0.1850336159017831
1748435687.8175182,1.00589,-0.038308,0.14335,0.6475000000000001,-2.7475,0.07,-0.45016077170418006,-0.00935399006138556,-0.1850336159017831
1748435687.8223994,1.007232,-0.038796,0.139202,0.31500000000000006,-2.765,0.12250000000000001,-0.45016077170418006,-0.00935399006138556,-0.1850336159017831
1748435687.8272827,1.008086,-0.039528,0.13359,0.035,-2.87,-0.035,-0.4472376498099971,0.0008769365682548962,-0.18225665010230926
1748435687.8321674,1.003816,-0.039406,0.135054,-0.21000000000000002,-2.8000000000000003,0.1925,-0.4472376498099971,0.0008769365682548962,-0.18225665010230926
1748435687.8370395,1.000888,-0.04392,0.13480999999999999,-0.4025,-2.5200000000000005,0.47250000000000003,-0.4472376498099971,0.0008769365682548962,-0.18225665010230926
1748435687.8419285,1.001132,-0.045018,0.134932,-0.47250000000000003,-2.765,0.3325,-0.4472376498099971,0.0008769365682548962,-0.18225665010230926
1748435687.846817,1.000888,-0.048799999999999996,0.131272,-0.56,-2.7475,0.385,-0.4472376498099971,0.0008769365682548962,-0.18225665010230926
1748435687.8517005,0.99918,-0.046848,0.134688,-0.6475000000000001,-2.6775,0.36750000000000005,-0.4472376498099971,0.0008769365682548962,-0.18225665010230926
1748435687.8573105,0.996252,-0.048068,0.128588,-0.56,-2.7825,0.56,-0.4472376498099971,0.0008769365682548962,-0.18225665010230926
1748435687.861464,0.990152,-0.049166,0.135176,-0.6300000000000001,-2.5200000000000005,0.77,-0.4472376498099971,0.0008769365682548962,-0.18225665010230926
1748435687.8663514,0.992348,-0.050263999999999996,0.13115,-0.5425000000000001,-2.975,0.7175,-0.4472376498099971,0.0008769365682548962,-0.18225665010230926
1748435687.871237,0.991372,-0.046482,0.129686,-0.56,-2.87,0.9450000000000001,-0.4472376498099971,0.0008769365682548962,-0.18225665010230926
1748435687.8761203,0.9922259999999999,-0.049409999999999996,0.133102,-0.5075000000000001,-2.8350000000000004,1.0325000000000002,-0.4513300204618533,-0.0043846828412744815,-0.17933352820812629
1748435687.8809924,0.993324,-0.05002,0.130662,-0.5425000000000001,-3.2550000000000003,0.8225000000000001,-0.4513300204618533,-0.0043846828412744815,-0.17933352820812629
1748435687.885881,0.988688,-0.046116,0.13078399999999998,-0.5425000000000001,-2.66,1.4875,-0.4513300204618533,-0.0043846828412744815,-0.17933352820812629
1748435687.890767,0.989054,-0.048068,0.135908,-0.36750000000000005,-2.9575000000000005,1.2775,-0.4513300204618533,-0.0043846828412744815,-0.17933352820812629
1748435687.8956552,0.99308,-0.046482,0.135664,-0.22750000000000004,-3.1675000000000004,1.2600000000000002,-0.4513300204618533,-0.0043846828412744815,-0.17933352820812629
1748435687.9005451,0.9958859999999999,-0.045018,0.136762,-0.12250000000000001,-3.2900000000000005,1.1900000000000002,-0.4513300204618533,-0.0043846828412744815,-0.17933352820812629
1748435687.9054143,0.9958859999999999,-0.045384,0.13847,0.0,-3.4475000000000002,1.2075,-0.4513300204618533,-0.0043846828412744815,-0.17933352820812629
1748435687.911026,0.9995459999999999,-0.046116,0.141642,-0.12250000000000001,-3.6050000000000004,1.0675000000000001,-0.4513300204618533,-0.0043846828412744815,-0.17933352820812629
1748435687.9151962,1.000644,-0.04697,0.140544,-0.12250000000000001,-3.5875000000000004,0.9100000000000001,-0.4513300204618533,-0.0043846828412744815,-0.17933352820812629
1748435687.9200804,1.001132,-0.046726,0.141642,-0.2625,-3.5175000000000005,0.9100000000000001,-0.4513300204618533,-0.0043846828412744815,-0.17933352820812629
1748435687.9249477,0.995642,-0.047702,0.14945,-0.31500000000000006,-3.8675,0.665,-0.45279158140894477,-0.004969307220111079,-0.18254896229172757
1748435687.9298341,1.000766,-0.04697,0.141398,-0.35000000000000003,-3.43,1.1375000000000002,-0.45279158140894477,-0.004969307220111079,-0.18254896229172757
1748435687.9347205,1.00467,-0.046238,0.140422,-0.29750000000000004,-2.9925,1.0325000000000002,-0.45279158140894477,-0.004969307220111079,-0.18254896229172757
1748435687.9396074,1.003938,-0.043066,0.134932,-0.17500000000000002,-2.87,0.9800000000000001,-0.45279158140894477,-0.004969307220111079,-0.18254896229172757
1748435687.944487,0.99613,-0.040748,0.13663999999999998,-0.1925,-2.5025000000000004,0.8575,-0.45279158140894477,-0.004969307220111079,-0.18254896229172757
1748435687.9493625,0.996252,-0.04209,0.13115,-0.1925,-2.345,0.9450000000000001,-0.45279158140894477,-0.004969307220111079,-0.18254896229172757
1748435687.9542522,0.99247,-0.043676,0.130296,-0.15750000000000003,-2.0125,0.9100000000000001,-0.45279158140894477,-0.004969307220111079,-0.18254896229172757
1748435687.959145,0.990274,-0.044164,0.130418,-0.12250000000000001,-1.7500000000000002,0.8925000000000001,-0.45279158140894477,-0.004969307220111079,-0.18254896229172757
1748435687.964772,0.98698,-0.040015999999999996,0.13298,-0.14,-1.6625,0.9275000000000001,-0.45279158140894477,-0.004969307220111079,-0.18254896229172757
1748435687.968909,0.984418,-0.042943999999999996,0.133834,-0.17500000000000002,-1.4000000000000001,1.1025,-0.45279158140894477,-0.004969307220111079,-0.18254896229172757
1748435687.9737902,0.9891759999999999,-0.041602,0.137738,-0.052500000000000005,-1.8200000000000003,0.9625000000000001,-0.4463607132417422,-0.006723180356620871,-0.1847413037123648
1748435687.9787824,0.991738,-0.042822,0.135908,-0.0175,-1.8200000000000003,1.1375000000000002,-0.4463607132417422,-0.006723180356620871,-0.1847413037123648
1748435687.983657,0.991494,-0.04392,0.142008,0.0,-1.1375000000000002,1.6450000000000002,-0.4463607132417422,-0.006723180356620871,-0.1847413037123648
1748435687.988538,0.995154,-0.04392,0.14005599999999999,0.052500000000000005,-1.2425000000000002,1.3650000000000002,-0.4463607132417422,-0.006723180356620871,-0.1847413037123648
1748435687.9934072,0.9977159999999999,-0.045262,0.13908,0.12250000000000001,-1.1025,1.2775,-0.4463607132417422,-0.006723180356620871,-0.1847413037123648
1748435687.9983134,1.003572,-0.043676,0.138836,0.22750000000000004,-0.9100000000000001,1.1025,-0.4463607132417422,-0.006723180356620871,-0.1847413037123648
1748435688.003194,0.999912,-0.0427,0.137006,0.2625,-0.665,1.0150000000000001,-0.4463607132417422,-0.006723180356620871,-0.1847413037123648
1748435688.0080814,0.992592,-0.042212,0.140178,0.24500000000000002,-0.42000000000000004,0.9625000000000001,-0.4463607132417422,-0.006723180356620871,-0.1847413037123648
1748435688.0129638,0.992592,-0.043554,0.138348,0.24500000000000002,-0.43750000000000006,0.9450000000000001,-0.4463607132417422,-0.006723180356620871,-0.1847413037123648
1748435688.0185883,0.9977159999999999,-0.042334,0.137616,0.17500000000000002,-0.29750000000000004,0.7875000000000001,-0.4463607132417422,-0.006723180356620871,-0.1847413037123648
1748435688.0227675,1.002108,-0.045384,0.137616,0.17500000000000002,-0.6475000000000001,0.12250000000000001,-0.45249926921952643,-0.005553931598947676,-0.18605670856474715
1748435688.0276587,1.004182,-0.04453,0.137494,0.08750000000000001,-0.29750000000000004,0.525,-0.45249926921952643,-0.005553931598947676,-0.18605670856474715
1748435688.03255,0.999302,-0.045628,0.137616,-0.035,-0.21000000000000002,0.36750000000000005,-0.45249926921952643,-0.005553931598947676,-0.18605670856474715
1748435688.0374105,0.997838,-0.041724,0.135542,-0.08750000000000001,-0.22750000000000004,0.4025,-0.45249926921952643,-0.005553931598947676,-0.18605670856474715
1748435688.0423093,0.988444,-0.044652,0.139202,-0.14,-0.22750000000000004,0.47250000000000003,-0.45249926921952643,-0.005553931598947676,-0.18605670856474715
1748435688.0471976,0.991982,-0.048068,0.134688,-0.12250000000000001,-0.35000000000000003,0.6125,-0.45249926921952643,-0.005553931598947676,-0.18605670856474715
1748435688.0520792,0.9922259999999999,-0.045262,0.13541999999999998,-0.052500000000000005,-0.10500000000000001,0.6475000000000001,-0.45249926921952643,-0.005553931598947676,-0.18605670856474715
1748435688.0569603,0.998204,-0.049654,0.133346,0.052500000000000005,-0.07,0.6125,-0.45249926921952643,-0.005553931598947676,-0.18605670856474715
1748435688.061874,0.998204,-0.044896,0.128222,0.12250000000000001,0.10500000000000001,0.42000000000000004,-0.45249926921952643,-0.005553931598947676,-0.18605670856474715
1748435688.0667622,0.993324,-0.046116,0.132614,0.10500000000000001,0.31500000000000006,0.49000000000000005,-0.45249926921952643,-0.005553931598947676,-0.18605670856474715
1748435688.0723748,0.992104,-0.049044,0.132492,0.24500000000000002,0.22750000000000004,0.35000000000000003,-0.4565916398713826,-0.007892429114294067,-0.18517977199649224
1748435688.0765204,0.993934,-0.049898,0.130906,0.28,0.3325,0.665,-0.4565916398713826,-0.007892429114294067,-0.18517977199649224
1748435688.081401,0.993568,-0.049532,0.131516,0.29750000000000004,0.56,0.77,-0.4565916398713826,-0.007892429114294067,-0.18517977199649224
1748435688.0862813,0.996862,-0.051118,0.13017399999999998,0.42000000000000004,0.5950000000000001,0.7525000000000001,-0.4565916398713826,-0.007892429114294067,-0.18517977199649224
1748435688.0911841,1.002596,-0.05063,0.127856,0.36750000000000005,0.5075000000000001,0.77,-0.4565916398713826,-0.007892429114294067,-0.18517977199649224
1748435688.096072,1.00284,-0.048556,0.1281,0.24500000000000002,0.6475000000000001,0.8750000000000001,-0.4565916398713826,-0.007892429114294067,-0.18517977199649224
1748435688.100946,0.997594,-0.04697,0.12383,0.17500000000000002,0.6825000000000001,0.9625000000000001,-0.4565916398713826,-0.007892429114294067,-0.18517977199649224
1748435688.1058443,0.996618,-0.045628,0.122976,0.14,0.7525000000000001,1.0150000000000001,-0.4565916398713826,-0.007892429114294067,-0.18517977199649224
1748435688.1107583,0.99369,-0.045506,0.121756,0.035,0.5425000000000001,1.0325000000000002,-0.4565916398713826,-0.007892429114294067,-0.18517977199649224
1748435688.1156476,0.9922259999999999,-0.044652,0.12456199999999999,0.0,0.49000000000000005,1.0150000000000001,-0.4565916398713826,-0.007892429114294067,-0.18517977199649224
1748435688.1205213,0.998082,-0.044652,0.121268,-0.14,0.31500000000000006,1.0325000000000002,-0.45513007892429114,0.0035077462730195848,-0.19146448406898567
1748435688.1261394,0.994788,-0.043798,0.125294,-0.29750000000000004,0.5075000000000001,1.2075,-0.45513007892429114,0.0035077462730195848,-0.19146448406898567
1748435688.1302974,0.99674,-0.044286,0.125294,-0.4025,0.3325,0.6825000000000001,-0.45513007892429114,0.0035077462730195848,-0.19146448406898567
1748435688.1351762,0.997594,-0.042212,0.127246,-0.56,0.22750000000000004,0.6125,-0.45513007892429114,0.0035077462730195848,-0.19146448406898567
1748435688.1400688,0.99491,-0.045384,0.15555,-0.6825000000000001,0.4025,0.6825000000000001,-0.45513007892429114,0.0035077462730195848,-0.19146448406898567
1748435688.1449423,0.996374,-0.044042,0.129198,-0.6825000000000001,0.22750000000000004,0.7350000000000001,-0.45513007892429114,0.0035077462730195848,-0.19146448406898567
1748435688.1498425,0.99552,-0.04453,0.131272,-0.7350000000000001,0.2625,0.6825000000000001,-0.45513007892429114,0.0035077462730195848,-0.19146448406898567
1748435688.154721,0.99979,-0.043188,0.128466,-0.8225000000000001,0.14,0.77,-0.45513007892429114,0.0035077462730195848,-0.19146448406898567
1748435688.1596203,1.00345,-0.043798,0.135054,-0.8400000000000001,0.17500000000000002,0.7175,-0.45513007892429114,0.0035077462730195848,-0.19146448406898567
1748435688.164505,1.00589,-0.044896,0.130662,-0.8575,0.08750000000000001,0.665,-0.45513007892429114,0.0035077462730195848,-0.19146448406898567
1748435688.1693869,1.00711,-0.044407999999999996,0.13115,-0.9975,-0.14,0.21000000000000002,-0.45366851797719965,-0.00467699503069278,-0.18211049400760013
1748435688.1742814,1.005524,-0.044042,0.127734,-1.0325000000000002,-0.035,0.43750000000000006,-0.45366851797719965,-0.00467699503069278,-0.18211049400760013
1748435688.1798973,1.003694,-0.041602,0.13017399999999998,-1.1375000000000002,0.10500000000000001,0.22750000000000004,-0.45366851797719965,-0.00467699503069278,-0.18211049400760013
1748435688.1840434,1.000766,-0.041724,0.12688,-1.2775,0.0,0.14,-0.45366851797719965,-0.00467699503069278,-0.18211049400760013
1748435688.188927,1.000766,-0.039162,0.128588,-1.2950000000000002,-0.43750000000000006,-0.28,-0.45366851797719965,-0.00467699503069278,-0.18211049400760013
1748435688.193808,1.002596,-0.040382,0.12834399999999999,-1.3475000000000001,-0.5075000000000001,-0.08750000000000001,-0.45366851797719965,-0.00467699503069278,-0.18211049400760013
1748435688.1987088,1.00101,-0.04087,0.127246,-1.4700000000000002,-0.5775,-0.1925,-0.45366851797719965,-0.00467699503069278,-0.18211049400760013
1748435688.2035875,1.000644,-0.041724,0.123708,-1.4700000000000002,-0.6475000000000001,-0.24500000000000002,-0.45366851797719965,-0.00467699503069278,-0.18211049400760013
1748435688.2084649,0.997228,-0.042578,0.128466,-1.4875,-0.5775,-0.28,-0.45366851797719965,-0.00467699503069278,-0.18211049400760013
1748435688.213355,0.99674,-0.042212,0.12505,-1.5050000000000001,-0.77,-0.35000000000000003,-0.45366851797719965,-0.00467699503069278,-0.18211049400760013
1748435688.2182336,0.993812,-0.03965,0.127368,-1.5050000000000001,-0.8225000000000001,-0.42000000000000004,-0.45425314235603625,-0.007600116924875768,-0.18211049400760013
1748435688.2231374,1.000034,-0.042212,0.127368,-1.5575,-1.2600000000000002,-0.4025,-0.45425314235603625,-0.007600116924875768,-0.18211049400760013
1748435688.2280262,1.000644,-0.04087,0.126148,-1.5575,-0.9625000000000001,-0.08750000000000001,-0.45425314235603625,-0.007600116924875768,-0.18211049400760013
1748435688.2336326,0.9964959999999999,-0.039162,0.126148,-1.61,-1.1375000000000002,-0.29750000000000004,-0.45425314235603625,-0.007600116924875768,-0.18211049400760013
1748435688.2378337,0.9958859999999999,-0.039894,0.126148,-1.6275000000000002,-1.3825,-0.49000000000000005,-0.45425314235603625,-0.007600116924875768,-0.18211049400760013
1748435688.2427075,0.9946659999999999,-0.041114,0.12505,-1.54,-1.6275000000000002,-0.4025,-0.45425314235603625,-0.007600116924875768,-0.18211049400760013
1748435688.2476087,0.995398,-0.041968,0.12395199999999999,-1.4875,-1.6275000000000002,-0.2625,-0.45425314235603625,-0.007600116924875768,-0.18211049400760013
1748435688.2524931,0.9964959999999999,-0.04514,0.124684,-1.4525000000000001,-1.7850000000000001,-0.1925,-0.45425314235603625,-0.007600116924875768,-0.18211049400760013
1748435688.2573783,0.9983259999999999,-0.048922,0.124074,-1.4000000000000001,-1.8375000000000001,-0.10500000000000001,-0.45425314235603625,-0.007600116924875768,-0.18211049400760013
1748435688.2622664,0.998082,-0.048556,0.124074,-1.4175000000000002,-1.8375000000000001,-0.10500000000000001,-0.45425314235603625,-0.007600116924875768,-0.18211049400760013
1748435688.2671568,0.997228,-0.048434,0.124806,-1.2775,-2.2575000000000003,-0.3325,-0.45220695703010816,-0.008769365682548963,-0.1806489330605086
1748435688.2720404,0.99613,-0.047092,0.127124,-1.2425000000000002,-1.715,0.43750000000000006,-0.45220695703010816,-0.008769365682548963,-0.1806489330605086
1748435688.27692,0.99613,-0.04819,0.125538,-1.1375000000000002,-1.9425000000000001,0.35000000000000003,-0.45220695703010816,-0.008769365682548963,-0.1806489330605086
1748435688.2818186,0.998692,-0.049654,0.13054,-0.9975,-2.0475000000000003,0.45500000000000007,-0.45220695703010816,-0.008769365682548963,-0.1806489330605086
1748435688.2874303,1.00711,-0.052337999999999996,0.121878,-0.9275000000000001,-2.1875,0.56,-0.45220695703010816,-0.008769365682548963,-0.1806489330605086
1748435688.291594,1.009062,-0.049288,0.125782,-0.7875000000000001,-1.8025000000000002,0.5775,-0.45220695703010816,-0.008769365682548963,-0.1806489330605086
1748435688.2964733,1.001986,-0.051727999999999996,0.12395199999999999,-0.6125,-2.0300000000000002,0.31500000000000006,-0.45220695703010816,-0.008769365682548963,-0.1806489330605086
1748435688.3013556,0.994422,-0.049166,0.128466,-0.6475000000000001,-1.715,0.49000000000000005,-0.45220695703010816,-0.008769365682548963,-0.1806489330605086
1748435688.306251,0.991372,-0.050508,0.125172,-0.5775,-1.8375000000000001,0.6125,-0.45220695703010816,-0.008769365682548963,-0.1806489330605086
1748435688.311145,0.99125,-0.05063,0.1281,-0.49000000000000005,-1.8375000000000001,0.7875000000000001,-0.45220695703010816,-0.008769365682548963,-0.1806489330605086
1748435688.316031,0.997228,-0.049654,0.12505,-0.385,-2.0475000000000003,0.665,-0.44694533762057875,-0.010815551008477054,-0.18795673779596608
1748435688.3209052,1.001864,-0.048068,0.12627,-0.14,-1.8025000000000002,0.9625000000000001,-0.44694533762057875,-0.010815551008477054,-0.18795673779596608
1748435688.3258064,1.004304,-0.048556,0.116876,-0.08750000000000001,-1.54,0.9800000000000001,-0.44694533762057875,-0.010815551008477054,-0.18795673779596608
1748435688.3307006,0.998204,-0.042943999999999996,0.12456199999999999,-0.052500000000000005,-1.33,0.77,-0.44694533762057875,-0.010815551008477054,-0.18795673779596608
1748435688.3355937,0.9940559999999999,-0.044286,0.11931599999999999,0.035,-1.4525000000000001,0.8750000000000001,-0.44694533762057875,-0.010815551008477054,-0.18795673779596608
1748435688.347128,0.993568,-0.041846,0.126026,0.15750000000000003,-1.61,0.9800000000000001,-0.44694533762057875,-0.010815551008477054,-0.18795673779596608
1748435688.3505795,1.008574,-0.051362,0.118462,0.052500000000000005,-1.6800000000000002,0.6300000000000001,-0.44694533762057875,-0.010815551008477054,-0.18795673779596608
1748435688.3554413,0.972096,-0.048678,0.127368,0.052500000000000005,-1.6275000000000002,0.45500000000000007,-0.44694533762057875,-0.010815551008477054,-0.18795673779596608
1748435688.3603258,0.986736,-0.049409999999999996,0.127856,0.0,-1.9425000000000001,0.6475000000000001,-0.48436129786612103,-0.007307804735457469,-0.17451037708272435
1748435688.365206,0.987224,-0.044407999999999996,0.125782,0.12250000000000001,-2.2750000000000004,0.5950000000000001,-0.4533762057877814,-0.007307804735457469,-0.17451037708272435
1748435688.370096,0.9958859999999999,-0.048068,0.127124,0.08750000000000001,-1.9600000000000002,1.225,-0.4533762057877814,-0.007307804735457469,-0.17451037708272435
1748435688.3749814,1.001864,-0.045628,0.122732,0.07,-2.0300000000000002,0.8225000000000001,-0.4533762057877814,-0.007307804735457469,-0.17451037708272435
1748435688.3798652,1.000888,-0.041358,0.124196,0.15750000000000003,-1.6625,0.6475000000000001,-0.4533762057877814,-0.007307804735457469,-0.17451037708272435
1748435688.3847485,0.996008,-0.0427,0.127734,0.07,-1.4000000000000001,0.5075000000000001,-0.4533762057877814,-0.007307804735457469,-0.17451037708272435
1748435688.389633,0.994544,-0.041846,0.12834399999999999,0.052500000000000005,-1.3125000000000002,0.4025,-0.4533762057877814,-0.007307804735457469,-0.17451037708272435
1748435688.3945208,1.00223,-0.046116,0.12505,0.0175,-1.4700000000000002,0.36750000000000005,-0.4533762057877814,-0.007307804735457469,-0.17451037708272435
1748435688.4020445,1.01016,-0.045871999999999996,0.125172,0.0175,-0.9100000000000001,0.052500000000000005,-0.4533762057877814,-0.007307804735457469,-0.17451037708272435
1748435688.4053726,1.01016,-0.040626,0.125172,0.0175,-0.9100000000000001,0.052500000000000005,-0.4533762057877814,-0.007307804735457469,-0.17451037708272435
1748435688.4102418,0.9964959999999999,-0.047214,0.1281,-0.0175,-1.05,-0.7000000000000001,-0.45483776673487286,-0.01169248757673195,-0.17816427945045307
1748435688.4151266,1.011136,-0.054655999999999996,0.12505,-0.035,-1.8025000000000002,-0.6300000000000001,-0.45483776673487286,-0.01169248757673195,-0.17816427945045307
1748435688.4200122,0.9977159999999999,-0.043554,0.112728,-0.21000000000000002,-0.9100000000000001,-0.5075000000000001,-0.45483776673487286,-0.01169248757673195,-0.17816427945045307
1748435688.424895,0.975146,-0.04209,0.127368,-0.35000000000000003,-1.6800000000000002,-0.1925,-0.45483776673487286,-0.01169248757673195,-0.17816427945045307
1748435688.429777,0.975878,-0.045262,0.12834399999999999,-0.36750000000000005,-1.8550000000000002,-0.07,-0.45483776673487286,-0.01169248757673195,-0.17816427945045307
1748435688.434662,0.987468,-0.043432,0.130296,-0.3325,-1.5925000000000002,0.1925,-0.45483776673487286,-0.01169248757673195,-0.17816427945045307
1748435688.439549,0.998448,-0.046116,0.122366,-0.31500000000000006,-1.3825,0.0,-0.45483776673487286,-0.01169248757673195,-0.17816427945045307
1748435688.4444356,0.991372,-0.044164,0.126148,-0.29750000000000004,-0.7525000000000001,0.08750000000000001,-0.45483776673487286,-0.01169248757673195,-0.17816427945045307
1748435688.4493186,0.979294,-0.044407999999999996,0.13663999999999998,-0.24500000000000002,-0.47250000000000003,0.15750000000000003,-0.45483776673487286,-0.01169248757673195,-0.17816427945045307
1748435688.4551866,0.986614,-0.047458,0.130418,-0.29750000000000004,-0.7350000000000001,0.31500000000000006,-0.45483776673487286,-0.01169248757673195,-0.17816427945045307
1748435688.459113,1.001742,-0.050142,0.12993,-0.22750000000000004,-0.7525000000000001,0.5075000000000001,-0.4574685764396375,0.0008769365682548962,-0.17012569424144988
1748435688.4639826,1.00528,-0.049654,0.127734,-0.21000000000000002,-0.9800000000000001,0.29750000000000004,-0.4574685764396375,0.0008769365682548962,-0.17012569424144988
1748435688.468868,1.001742,-0.049409999999999996,0.132004,-0.31500000000000006,-0.2625,0.77,-0.4574685764396375,0.0008769365682548962,-0.17012569424144988
1748435688.4737606,1.005524,-0.047335999999999996,0.130906,-0.28,-0.5425000000000001,0.56,-0.4574685764396375,0.0008769365682548962,-0.17012569424144988
1748435688.478642,1.008086,-0.04819,0.12749,-0.2625,-0.5075000000000001,0.43750000000000006,-0.4574685764396375,0.0008769365682548962,-0.17012569424144988
1748435688.483533,1.00589,-0.049776,0.124196,-0.36750000000000005,-0.28,0.36750000000000005,-0.4574685764396375,0.0008769365682548962,-0.17012569424144988
1748435688.488413,0.997594,-0.047335999999999996,0.12078,-0.36750000000000005,-0.14,0.29750000000000004,-0.4574685764396375,0.0008769365682548962,-0.17012569424144988
1748435688.493301,0.986126,-0.04819,0.122976,-0.385,0.15750000000000003,0.35000000000000003,-0.4574685764396375,0.0008769365682548962,-0.17012569424144988
1748435688.4981859,0.985638,-0.048556,0.121756,-0.47250000000000003,0.12250000000000001,0.36750000000000005,-0.4574685764396375,0.0008769365682548962,-0.17012569424144988
1748435688.5030758,0.98942,-0.048922,0.11223999999999999,-0.49000000000000005,0.07,0.45500000000000007,-0.4574685764396375,0.0008769365682548962,-0.17012569424144988
1748435688.5146194,0.99308,-0.04697,0.11699799999999999,-0.6125,0.21000000000000002,0.14,-0.45513007892429114,-0.00233849751534639,-0.17129494299912307
1748435688.517946,0.9983259999999999,-0.046604,0.12017,-0.6125,0.7350000000000001,0.10500000000000001,-0.45513007892429114,-0.00233849751534639,-0.17129494299912307
1748435688.5228052,1.002474,-0.048922,0.119438,-0.5425000000000001,0.385,-0.385,-0.45513007892429114,-0.00233849751534639,-0.17129494299912307
1748435688.527693,0.99796,-0.044042,0.124928,-0.5950000000000001,0.35000000000000003,-0.1925,-0.45513007892429114,-0.00233849751534639,-0.17129494299912307
1748435688.5325735,0.991982,-0.041846,0.127124,-0.5775,0.052500000000000005,-0.12250000000000001,-0.45513007892429114,-0.00233849751534639,-0.17129494299912307
1748435688.5374603,0.996862,-0.042212,0.130662,-0.6300000000000001,-0.22750000000000004,-0.052500000000000005,-0.45513007892429114,-0.00233849751534639,-0.17129494299912307
1748435688.5423493,1.004304,-0.045871999999999996,0.127368,-0.6825000000000001,-0.10500000000000001,-0.035,-0.45513007892429114,-0.00233849751534639,-0.17129494299912307
1748435688.5472355,1.01016,-0.048312,0.120536,-0.6300000000000001,-0.052500000000000005,-0.07,-0.45513007892429114,-0.00233849751534639,-0.17129494299912307
1748435688.552116,0.995032,-0.040382,0.12834399999999999,-0.525,0.22750000000000004,0.035,-0.45513007892429114,-0.00233849751534639,-0.17129494299912307
1748435688.5570033,0.989542,-0.043676,0.122732,-0.5950000000000001,-0.12250000000000001,-0.08750000000000001,-0.45483776673487286,-0.007892429114294067,-0.1806489330605086
1748435688.5618875,0.989542,-0.04331,0.122,-0.5075000000000001,-0.3325,0.43750000000000006,-0.45483776673487286,-0.007892429114294067,-0.1806489330605086
1748435688.5695024,0.999058,-0.045506,0.120902,-0.5075000000000001,-0.21000000000000002,0.42000000000000004,-0.45483776673487286,-0.007892429114294067,-0.1806489330605086
1748435688.5728447,1.005158,-0.043798,0.12102399999999999,-0.56,-0.0175,0.42000000000000004,-0.45483776673487286,-0.007892429114294067,-0.1806489330605086
1748435688.577706,1.000034,-0.04453,0.123464,-0.5775,-0.10500000000000001,-0.14,-0.45483776673487286,-0.007892429114294067,-0.1806489330605086
1748435688.5825942,0.994788,-0.03965,0.129442,-0.43750000000000006,-0.052500000000000005,0.07,-0.45483776673487286,-0.007892429114294067,-0.1806489330605086
1748435688.58748,0.990518,-0.042456,0.12627,-0.43750000000000006,-0.035,0.08750000000000001,-0.45483776673487286,-0.007892429114294067,-0.1806489330605086
1748435688.5923643,0.9916159999999999,-0.040992,0.135908,-0.47250000000000003,-0.17500000000000002,0.052500000000000005,-0.45483776673487286,-0.007892429114294067,-0.1806489330605086
1748435688.5972497,0.9983259999999999,-0.045018,0.126636,-0.49000000000000005,-0.31500000000000006,0.10500000000000001,-0.45483776673487286,-0.007892429114294067,-0.1806489330605086
1748435688.6021302,0.997472,-0.044896,0.13419999999999999,-0.4025,-0.035,-0.15750000000000003,-0.45483776673487286,-0.007892429114294067,-0.1806489330605086
1748435688.6070182,1.001254,-0.04819,0.130052,-0.4025,0.0,-0.35000000000000003,-0.4600993861444022,-0.001169248757673195,-0.1778719672610348
1748435688.6119025,0.997594,-0.043066,0.12895399999999999,-0.4025,0.525,0.15750000000000003,-0.4600993861444022,-0.001169248757673195,-0.1778719672610348
1748435688.616787,0.993202,-0.044652,0.128832,-0.385,0.47250000000000003,0.10500000000000001,-0.4600993861444022,-0.001169248757673195,-0.1778719672610348
1748435688.6226351,0.997594,-0.04636,0.124806,-0.3325,0.49000000000000005,0.1925,-0.4600993861444022,-0.001169248757673195,-0.1778719672610348
1748435688.6265814,0.997594,-0.044164,0.126514,-0.29750000000000004,0.7350000000000001,0.17500000000000002,-0.4600993861444022,-0.001169248757673195,-0.1778719672610348
1748435688.6314483,0.996252,-0.047702,0.124318,-0.28,0.6300000000000001,0.035,-0.4600993861444022,-0.001169248757673195,-0.1778719672610348
1748435688.6363316,0.9910059999999999,-0.04392,0.129808,-0.2625,0.8750000000000001,0.1925,-0.4600993861444022,-0.001169248757673195,-0.1778719672610348
1748435688.641212,0.99247,-0.04697,0.127978,-0.17500000000000002,0.7525000000000001,0.31500000000000006,-0.4600993861444022,-0.001169248757673195,-0.1778719672610348
1748435688.646101,0.996374,-0.047945999999999996,0.12871,-0.035,0.6300000000000001,0.4025,-0.4600993861444022,-0.001169248757673195,-0.1778719672610348
1748435688.6509862,0.9943,-0.05002,0.132248,-0.0175,0.7525000000000001,0.42000000000000004,-0.4600993861444022,-0.001169248757673195,-0.1778719672610348
1748435688.655869,0.994422,-0.051484,0.13115,0.12250000000000001,0.45500000000000007,0.24500000000000002,-0.4478222741888337,-0.0008769365682548962,-0.17261034785150542
1748435688.6607485,0.994422,-0.04697,0.13054,0.22750000000000004,0.9275000000000001,0.7525000000000001,-0.4478222741888337,-0.0008769365682548962,-0.17261034785150542
1748435688.6656342,0.9952759999999999,-0.046726,0.13078399999999998,0.28,1.0150000000000001,0.8750000000000001,-0.4478222741888337,-0.0008769365682548962,-0.17261034785150542
1748435688.6705256,0.9989359999999999,-0.050752,0.12749,0.21000000000000002,0.9800000000000001,0.9800000000000001,-0.4478222741888337,-0.0008769365682548962,-0.17261034785150542
1748435688.6761568,1.000156,-0.05063,0.124806,0.24500000000000002,1.225,1.05,-0.4478222741888337,-0.0008769365682548962,-0.17261034785150542
1748435688.6802907,0.9995459999999999,-0.051972,0.12078,0.29750000000000004,1.7325000000000002,1.3475000000000001,-0.4478222741888337,-0.0008769365682548962,-0.17261034785150542
1748435688.685174,0.993568,-0.050508,0.12224399999999999,0.24500000000000002,1.6975000000000002,1.05,-0.4478222741888337,-0.0008769365682548962,-0.17261034785150542
1748435688.6900573,0.994788,-0.049898,0.120902,0.36750000000000005,1.9600000000000002,1.4000000000000001,-0.4478222741888337,-0.0008769365682548962,-0.17261034785150542
1748435688.6949449,0.9922259999999999,-0.047458,0.11931599999999999,0.36750000000000005,2.0125,1.4700000000000002,-0.4478222741888337,-0.0008769365682548962,-0.17261034785150542
1748435688.6998293,0.995032,-0.046848,0.123464,0.42000000000000004,2.1350000000000002,1.4700000000000002,-0.4478222741888337,-0.0008769365682548962,-0.17261034785150542
1748435688.7047102,0.9989359999999999,-0.046482,0.12163399999999999,0.45500000000000007,1.7850000000000001,1.33,-0.45016077170418006,-0.0070154925460391695,-0.1743642209880152
1748435688.7095933,1.002108,-0.043676,0.122488,0.6125,1.7850000000000001,1.4525000000000001,-0.45016077170418006,-0.0070154925460391695,-0.1743642209880152
1748435688.7144794,1.002474,-0.040992,0.119438,0.5950000000000001,1.7500000000000002,1.1900000000000002,-0.45016077170418006,-0.0070154925460391695,-0.1743642209880152
1748435688.719373,1.00101,-0.041846,0.122122,0.56,1.3650000000000002,1.0150000000000001,-0.45016077170418006,-0.0070154925460391695,-0.1743642209880152
1748435688.724256,1.000766,-0.042822,0.115534,0.49000000000000005,1.2775,0.8225000000000001,-0.45016077170418006,-0.0070154925460391695,-0.1743642209880152
1748435688.7298758,0.998814,-0.046238,0.113094,0.4025,1.1725,0.7525000000000001,-0.45016077170418006,-0.0070154925460391695,-0.1743642209880152
1748435688.7340155,0.998814,-0.046238,0.11992599999999999,0.31500000000000006,1.12,0.49000000000000005,-0.45016077170418006,-0.0070154925460391695,-0.1743642209880152
1748435688.7389054,0.995398,-0.044407999999999996,0.116022,0.31500000000000006,0.805,0.4025,-0.45016077170418006,-0.0070154925460391695,-0.1743642209880152
1748435688.7437868,0.993934,-0.041602,0.124196,0.15750000000000003,0.9100000000000001,0.29750000000000004,-0.45016077170418006,-0.0070154925460391695,-0.1743642209880152
1748435688.7486715,0.998448,-0.041968,0.117974,0.07,0.5775,0.2625,-0.45016077170418006,-0.0070154925460391695,-0.1743642209880152
1748435688.7535553,0.998814,-0.042578,0.123098,0.12250000000000001,0.385,-0.08750000000000001,-0.45249926921952643,-0.006723180356620871,-0.17947968430283542
1748435688.7584403,0.997838,-0.041968,0.12163399999999999,-0.035,0.805,0.525,-0.45249926921952643,-0.006723180356620871,-0.17947968430283542
1748435688.7633286,0.999424,-0.041358,0.127612,-0.035,0.7175,0.17500000000000002,-0.45249926921952643,-0.006723180356620871,-0.17947968430283542
1748435688.7682183,1.000034,-0.04331,0.125538,-0.08750000000000001,0.56,0.15750000000000003,-0.45249926921952643,-0.006723180356620871,-0.17947968430283542
1748435688.7730975,1.004304,-0.042334,0.12749,0.0,0.47250000000000003,0.052500000000000005,-0.45249926921952643,-0.006723180356620871,-0.17947968430283542
1748435688.7779903,1.002474,-0.043554,0.12749,-0.08750000000000001,0.385,0.052500000000000005,-0.45249926921952643,-0.006723180356620871,-0.17947968430283542
1748435688.7836003,0.999424,-0.042943999999999996,0.135542,-0.035,0.385,0.07,-0.45249926921952643,-0.006723180356620871,-0.17947968430283542
1748435688.7877579,0.99796,-0.043188,0.12834399999999999,0.052500000000000005,0.28,0.22750000000000004,-0.45249926921952643,-0.006723180356620871,-0.17947968430283542
1748435688.792641,0.992714,-0.039772,0.135542,0.08750000000000001,0.14,-0.08750000000000001,-0.45249926921952643,-0.006723180356620871,-0.17947968430283542
1748435688.7975318,0.99674,-0.047335999999999996,0.13237,-0.035,0.035,0.24500000000000002,-0.45249926921952643,0.030692779888921367,-0.1746565331774335
1748435688.8024337,1.00345,-0.043066,0.133468,-0.052500000000000005,-0.24500000000000002,-0.12250000000000001,-0.442268342589886,0.0005846243788365975,-0.1746565331774335
1748435688.8073282,1.006378,-0.045506,0.130052,-0.15750000000000003,-0.035,0.2625,-0.442268342589886,0.0005846243788365975,-0.1746565331774335
1748435688.812201,1.001254,-0.041479999999999996,0.132614,-0.14,0.47250000000000003,0.22750000000000004,-0.442268342589886,0.0005846243788365975,-0.1746565331774335
1748435688.8170893,0.9958859999999999,-0.041724,0.129076,-0.17500000000000002,0.5075000000000001,0.21000000000000002,-0.442268342589886,0.0005846243788365975,-0.1746565331774335
1748435688.8219676,0.992958,-0.037698,0.132614,-0.1925,0.43750000000000006,0.31500000000000006,-0.442268342589886,0.0005846243788365975,-0.1746565331774335
1748435688.8268697,0.993324,-0.041479999999999996,0.127002,-0.15750000000000003,0.56,0.31500000000000006,-0.442268342589886,0.0005846243788365975,-0.1746565331774335
1748435688.8317559,0.99796,-0.040382,0.132126,-0.15750000000000003,0.525,0.31500000000000006,-0.442268342589886,0.0005846243788365975,-0.1746565331774335
1748435688.8373735,0.999912,-0.03904,0.127734,-0.12250000000000001,0.7525000000000001,0.3325,-0.442268342589886,0.0005846243788365975,-0.1746565331774335
1748435688.8415244,0.999912,-0.03904,0.125294,-0.12250000000000001,0.77,0.29750000000000004,-0.442268342589886,0.0005846243788365975,-0.1746565331774335
1748435688.84642,0.9971059999999999,-0.041236,0.12505,-0.07,0.56,0.15750000000000003,-0.45103770827243495,-0.005261619409529378,-0.1737795966091786
1748435688.8513,0.993324,-0.043432,0.12444,0.052500000000000005,0.36750000000000005,0.24500000000000002,-0.45103770827243495,-0.005261619409529378,-0.1737795966091786
1748435688.8561823,0.9952759999999999,-0.039772,0.11931599999999999,0.10500000000000001,0.56,0.5775,-0.45103770827243495,-0.005261619409529378,-0.1737795966091786
1748435688.8610737,0.991372,-0.041846,0.122366,0.08750000000000001,0.49000000000000005,0.36750000000000005,-0.45103770827243495,-0.005261619409529378,-0.1737795966091786
1748435688.865968,0.994544,-0.04026,0.12163399999999999,0.22750000000000004,0.31500000000000006,0.4025,-0.45103770827243495,-0.005261619409529378,-0.1737795966091786
1748435688.8708415,0.9964959999999999,-0.043554,0.117364,0.29750000000000004,0.22750000000000004,0.385,-0.45103770827243495,-0.005261619409529378,-0.1737795966091786
1748435688.8757427,0.995154,-0.046238,0.117608,0.29750000000000004,0.15750000000000003,0.43750000000000006,-0.45103770827243495,-0.005261619409529378,-0.1737795966091786
1748435688.880626,0.995642,-0.04819,0.119438,0.35000000000000003,0.17500000000000002,0.47250000000000003,-0.45103770827243495,-0.005261619409529378,-0.1737795966091786
1748435688.8855097,0.992958,-0.045994,0.119072,0.45500000000000007,0.14,0.49000000000000005,-0.45103770827243495,-0.005261619409529378,-0.1737795966091786
1748435688.8911295,0.993812,-0.047824,0.123342,0.5075000000000001,0.14,0.525,-0.45103770827243495,-0.005261619409529378,-0.1737795966091786
1748435688.8952775,0.995764,-0.049654,0.12163399999999999,0.5075000000000001,0.14,0.77,-0.45483776673487286,-0.01607717041800643,-0.17421806489330605
1748435688.900165,0.9989359999999999,-0.047335999999999996,0.129442,0.5775,-0.21000000000000002,0.10500000000000001,-0.45483776673487286,-0.01607717041800643,-0.17421806489330605
1748435688.9050376,1.001986,-0.049044,0.12627,0.6300000000000001,0.035,0.9625000000000001,-0.45483776673487286,-0.01607717041800643,-0.17421806489330605
1748435688.9099386,0.9989359999999999,-0.048312,0.130052,0.7175,0.21000000000000002,0.6475000000000001,-0.45483776673487286,-0.01607717041800643,-0.17421806489330605
1748435688.9148345,1.000156,-0.049776,0.12993,0.805,0.08750000000000001,0.7350000000000001,-0.45483776673487286,-0.01607717041800643,-0.17421806489330605
1748435688.9197264,1.00223,-0.048799999999999996,0.13480999999999999,0.8575,0.28,0.5775,-0.45483776673487286,-0.01607717041800643,-0.17421806489330605
1748435688.924609,0.99979,-0.048922,0.13237,0.9625000000000001,0.22750000000000004,0.5425000000000001,-0.45483776673487286,-0.01607717041800643,-0.17421806489330605
1748435688.9294817,0.9958859999999999,-0.046604,0.134688,0.8750000000000001,0.385,0.525,-0.45483776673487286,-0.01607717041800643,-0.17421806489330605
1748435688.9343703,0.994178,-0.048312,0.129198,1.1375000000000002,0.6300000000000001,0.47250000000000003,-0.45483776673487286,-0.01607717041800643,-0.17421806489330605
1748435688.9392593,0.993202,-0.046116,0.138226,1.1025,0.45500000000000007,0.6125,-0.45483776673487286,-0.01607717041800643,-0.17421806489330605
1748435688.9448657,0.994788,-0.045018,0.130906,1.0850000000000002,0.665,0.47250000000000003,-0.45717626425021923,-0.008184741303712365,-0.17772581116632563
1748435688.949018,0.994788,-0.045018,0.125904,1.12,0.3325,0.665,-0.45717626425021923,-0.008184741303712365,-0.17772581116632563
1748435688.953902,0.996374,-0.044652,0.132126,1.155,0.8225000000000001,0.7875000000000001,-0.45717626425021923,-0.008184741303712365,-0.17772581116632563
1748435688.958835,1.0004,-0.045994,0.124196,1.155,0.5425000000000001,0.7350000000000001,-0.45717626425021923,-0.008184741303712365,-0.17772581116632563
1748435688.9636776,0.997472,-0.040626,0.13115,1.1025,0.6125,0.6300000000000001,-0.45717626425021923,-0.008184741303712365,-0.17772581116632563
1748435688.9685664,0.99796,-0.042334,0.126636,1.1025,0.4025,0.6300000000000001,-0.45717626425021923,-0.008184741303712365,-0.17772581116632563
1748435688.9734516,1.000278,-0.039162,0.127856,1.0850000000000002,0.28,0.6300000000000001,-0.45717626425021923,-0.008184741303712365,-0.17772581116632563
1748435688.978339,1.000644,-0.043432,0.12383,1.0150000000000001,0.08750000000000001,0.6475000000000001,-0.45717626425021923,-0.008184741303712365,-0.17772581116632563
1748435688.983224,1.002596,-0.040748,0.12956399999999998,0.9975,0.08750000000000001,0.56,-0.45717626425021923,-0.008184741303712365,-0.17772581116632563
1748435688.988109,1.001254,-0.044042,0.119682,0.9275000000000001,-0.15750000000000003,0.47250000000000003,-0.45717626425021923,-0.008184741303712365,-0.17772581116632563
1748435688.9929955,0.99369,-0.039772,0.124684,0.8750000000000001,-0.08750000000000001,0.29750000000000004,-0.45717626425021923,0.003215434083601286,-0.18079508915521778
1748435688.9986017,0.9952759999999999,-0.04453,0.12078,0.8225000000000001,-0.6125,0.0175,-0.45717626425021923,0.003215434083601286,-0.18079508915521778
1748435689.0027704,0.995398,-0.043432,0.12261,0.7875000000000001,-0.12250000000000001,0.805,-0.45717626425021923,0.003215434083601286,-0.18079508915521778
1748435689.007649,0.997472,-0.044164,0.121756,0.7525000000000001,-0.47250000000000003,0.35000000000000003,-0.45717626425021923,0.003215434083601286,-0.18079508915521778
1748435689.0125537,0.996008,-0.042822,0.124074,0.7525000000000001,-0.42000000000000004,0.47250000000000003,-0.45717626425021923,0.003215434083601286,-0.18079508915521778
1748435689.0174165,0.99491,-0.04636,0.124684,0.6825000000000001,-0.385,0.47250000000000003,-0.45717626425021923,0.003215434083601286,-0.18079508915521778
1748435689.0223038,0.995154,-0.043188,0.129808,0.6475000000000001,-0.42000000000000004,0.42000000000000004,-0.45717626425021923,0.003215434083601286,-0.18079508915521778
1748435689.0271966,0.995398,-0.04514,0.12834399999999999,0.6475000000000001,-0.5075000000000001,0.43750000000000006,-0.45717626425021923,0.003215434083601286,-0.18079508915521778
1748435689.0320697,0.99491,-0.043188,0.131638,0.7175,-0.5425000000000001,0.43750000000000006,-0.45717626425021923,0.003215434083601286,-0.18079508915521778
1748435689.036956,0.99735,-0.042943999999999996,0.129686,0.665,-0.56,0.36750000000000005,-0.45717626425021923,0.003215434083601286,-0.18079508915521778
1748435689.041838,0.995764,-0.045384,0.13054,0.6125,-0.6125,0.08750000000000001,-0.45016077170418006,-0.007892429114294067,-0.17363344051446947
1748435689.0467281,0.999668,-0.046238,0.12993,0.6300000000000001,-0.49000000000000005,0.45500000000000007,-0.45016077170418006,-0.007892429114294067,-0.17363344051446947
1748435689.0523596,0.994422,-0.042943999999999996,0.131638,0.5775,0.0175,0.45500000000000007,-0.45016077170418006,-0.007892429114294067,-0.17363344051446947
1748435689.056492,0.994422,-0.042943999999999996,0.12749,0.5775,-0.21000000000000002,0.36750000000000005,-0.45016077170418006,-0.007892429114294067,-0.17363344051446947
1748435689.0613782,0.994788,-0.040382,0.13237,0.6125,-0.15750000000000003,0.3325,-0.45016077170418006,-0.007892429114294067,-0.17363344051446947
1748435689.0662665,0.999424,-0.043676,0.12895399999999999,0.5950000000000001,-0.21000000000000002,0.45500000000000007,-0.45016077170418006,-0.007892429114294067,-0.17363344051446947
1748435689.0711503,1.000522,-0.041236,0.129686,0.525,-0.08750000000000001,0.31500000000000006,-0.45016077170418006,-0.007892429114294067,-0.17363344051446947
1748435689.0760357,0.99491,-0.042822,0.127124,0.5075000000000001,0.0,0.3325,-0.45016077170418006,-0.007892429114294067,-0.17363344051446947
1748435689.0809195,0.989664,-0.041236,0.13078399999999998,0.5075000000000001,0.22750000000000004,0.29750000000000004,-0.45016077170418006,-0.007892429114294067,-0.17363344051446947
1748435689.0858061,0.9897859999999999,-0.042334,0.125904,0.42000000000000004,0.07,0.35000000000000003,-0.45016077170418006,-0.007892429114294067,-0.17363344051446947
1748435689.0906959,0.993202,-0.041602,0.134444,0.4025,0.17500000000000002,0.24500000000000002,-0.4446068401052324,-0.004969307220111079,-0.17275650394621456
1748435689.0955815,0.9964959999999999,-0.045871999999999996,0.124318,0.36750000000000005,-0.22750000000000004,0.21000000000000002,-0.4446068401052324,-0.004969307220111079,-0.17275650394621456
1748435689.1004674,0.992592,-0.041724,0.133102,0.3325,0.525,0.5950000000000001,-0.4446068401052324,-0.004969307220111079,-0.17275650394621456
1748435689.10609,0.991128,-0.041724,0.126392,0.28,0.21000000000000002,0.4025,-0.4446068401052324,-0.004969307220111079,-0.17275650394621456
1748435689.1102338,0.989664,-0.040504,0.131638,0.36750000000000005,0.45500000000000007,0.49000000000000005,-0.4446068401052324,-0.004969307220111079,-0.17275650394621456
1748435689.1151187,0.993934,-0.041602,0.128588,0.47250000000000003,-0.035,0.22750000000000004,-0.4446068401052324,-0.004969307220111079,-0.17275650394621456
1748435689.1200068,0.993934,-0.038918,0.130662,0.45500000000000007,0.15750000000000003,0.29750000000000004,-0.4446068401052324,-0.004969307220111079,-0.17275650394621456
1748435689.1248894,0.992104,-0.041479999999999996,0.12871,0.385,0.14,0.31500000000000006,-0.4446068401052324,-0.004969307220111079,-0.17275650394621456
1748435689.1297872,0.995032,-0.038551999999999996,0.133712,0.385,0.2625,0.29750000000000004,-0.4446068401052324,-0.004969307220111079,-0.17275650394621456
1748435689.1346643,0.997472,-0.043554,0.126392,0.3325,0.24500000000000002,0.31500000000000006,-0.4446068401052324,-0.004969307220111079,-0.17275650394621456
1748435689.1395652,0.99796,-0.041602,0.138104,0.385,0.56,0.22750000000000004,-0.4419760304004677,-0.010815551008477054,-0.17772581116632563
1748435689.1444502,0.996984,-0.046238,0.12749,0.3325,0.31500000000000006,0.42000000000000004,-0.4419760304004677,-0.010815551008477054,-0.17772581116632563
1748435689.1493328,0.9903959999999999,-0.040382,0.137128,0.35000000000000003,0.9975,0.49000000000000005,-0.4419760304004677,-0.010815551008477054,-0.17772581116632563
1748435689.154235,0.9934459999999999,-0.044652,0.13054,0.35000000000000003,0.9975,0.385,-0.4419760304004677,-0.010815551008477054,-0.17772581116632563
1748435689.1598566,0.9995459999999999,-0.046238,0.129808,0.43750000000000006,1.1025,0.56,-0.4419760304004677,-0.010815551008477054,-0.17772581116632563
1748435689.1640148,0.9995459999999999,-0.046238,0.133102,0.5950000000000001,1.2950000000000002,0.3325,-0.4419760304004677,-0.010815551008477054,-0.17772581116632563
1748435689.1688924,0.97173,-0.044652,0.13115,0.6300000000000001,1.2425000000000002,0.2625,-0.4419760304004677,-0.010815551008477054,-0.17772581116632563
1748435689.1737847,0.998204,-0.038551999999999996,0.136518,0.7350000000000001,1.4175000000000002,0.21000000000000002,-0.4419760304004677,-0.010815551008477054,-0.17772581116632563
1748435689.1786783,0.999058,-0.042822,0.127856,0.8225000000000001,1.2425000000000002,0.14,-0.4419760304004677,-0.010815551008477054,-0.17772581116632563
1748435689.1835592,0.997594,-0.037698,0.131882,0.8925000000000001,1.3650000000000002,0.07,-0.4419760304004677,-0.010815551008477054,-0.17772581116632563
1748435689.1884522,0.996862,-0.0427,0.12566,0.9275000000000001,1.1725,0.07,-0.45045308389359834,-0.010523238819058756,-0.1749488453668518
1748435689.193335,0.993324,-0.041479999999999996,0.13078399999999998,0.8750000000000001,1.1025,0.0175,-0.45045308389359834,-0.010523238819058756,-0.1749488453668518
1748435689.1982336,0.999302,-0.046848,0.12505,0.8400000000000001,1.5050000000000001,0.3325,-0.45045308389359834,-0.010523238819058756,-0.1749488453668518
1748435689.2031252,0.9977159999999999,-0.040626,0.124806,0.805,1.3825,0.10500000000000001,-0.45045308389359834,-0.010523238819058756,-0.1749488453668518
1748435689.208006,0.994544,-0.041358,0.125416,0.7525000000000001,1.6450000000000002,0.21000000000000002,-0.45045308389359834,-0.010523238819058756,-0.1749488453668518
1748435689.2136135,0.995642,-0.040382,0.124684,0.7175,1.4525000000000001,0.21000000000000002,-0.45045308389359834,-0.010523238819058756,-0.1749488453668518
1748435689.2177866,0.993324,-0.041846,0.12383,0.6475000000000001,1.7675,0.42000000000000004,-0.45045308389359834,-0.010523238819058756,-0.1749488453668518
1748435689.2226667,0.997594,-0.044896,0.123708,0.7000000000000001,1.33,0.22750000000000004,-0.45045308389359834,-0.010523238819058756,-0.1749488453668518
1748435689.2275677,1.00223,-0.04575,0.127734,0.6475000000000001,1.435,0.4025,-0.45045308389359834,-0.010523238819058756,-0.1749488453668518
1748435689.2324567,1.00345,-0.046848,0.12688,0.6300000000000001,1.2425000000000002,0.43750000000000006,-0.45045308389359834,-0.010523238819058756,-0.1749488453668518
1748435689.2373416,1.004304,-0.046482,0.128222,0.665,1.2075,0.35000000000000003,-0.45571470330312774,0.0005846243788365975,-0.17904121601870798
1748435689.2422335,1.001498,-0.048678,0.125172,0.6825000000000001,0.7525000000000001,0.10500000000000001,-0.45571470330312774,0.0005846243788365975,-0.17904121601870798
1748435689.2471194,1.002352,-0.046482,0.13078399999999998,0.7000000000000001,1.0850000000000002,0.7000000000000001,-0.45571470330312774,0.0005846243788365975,-0.17904121601870798
1748435689.2520075,1.000522,-0.049898,0.122,0.7175,0.6125,0.5950000000000001,-0.45571470330312774,0.0005846243788365975,-0.17904121601870798
1748435689.2568817,0.998204,-0.047945999999999996,0.13115,0.77,0.385,0.7525000000000001,-0.45571470330312774,0.0005846243788365975,-0.17904121601870798
1748435689.261787,1.001132,-0.04758,0.121756,0.8750000000000001,0.5775,0.665,-0.45571470330312774,0.0005846243788365975,-0.17904121601870798
1748435689.2674217,0.999668,-0.046482,0.120048,0.9275000000000001,0.4025,0.8575,-0.45571470330312774,0.0005846243788365975,-0.17904121601870798
1748435689.2715662,0.999668,-0.046482,0.127124,0.9450000000000001,0.6125,0.7000000000000001,-0.45571470330312774,0.0005846243788365975,-0.17904121601870798
1748435689.2764482,0.9928359999999999,-0.047214,0.124928,0.9450000000000001,0.3325,0.7350000000000001,-0.45571470330312774,0.0005846243788365975,-0.17904121601870798
1748435689.2816217,0.998448,-0.04575,0.126148,0.9975,0.43750000000000006,0.7350000000000001,-0.45571470330312774,0.0005846243788365975,-0.17904121601870798
1748435689.286272,1.000278,-0.049166,0.121878,0.9275000000000001,0.29750000000000004,0.43750000000000006,-0.4615609470914937,-0.010230926629640456,-0.18137971353405438
1748435689.2911546,0.998448,-0.044896,0.134566,0.8750000000000001,0.6475000000000001,0.5775,-0.4615609470914937,-0.010230926629640456,-0.18137971353405438
1748435689.2960374,0.997594,-0.04819,0.125172,0.8400000000000001,0.8575,0.6825000000000001,-0.4615609470914937,-0.010230926629640456,-0.18137971353405438
1748435689.300915,0.9928359999999999,-0.038551999999999996,0.13786,0.8575,0.8925000000000001,0.385,-0.4615609470914937,-0.010230926629640456,-0.18137971353405438
1748435689.3058136,0.996984,-0.04453,0.127856,0.7875000000000001,0.6825000000000001,0.45500000000000007,-0.4615609470914937,-0.010230926629640456,-0.18137971353405438
