Timestamp,Accel X,Accel Y,Accel Z,Gyro X,Gyro Y,Gyro Z,Magneto X,Magneto Y,Magneto Z
1747151818.6314363,1.002108,0.000732,0.091866,-0.07,0.12250000000000001,0.3325,-0.6679333528208127,-0.5632855890090617,0.233849751534639
1747151818.636258,1.002596,0.001464,0.091866,-0.10500000000000001,0.24500000000000002,0.49000000000000005,-0.6679333528208127,-0.5632855890090617,0.233849751534639
1747151818.641132,1.001986,0.000244,0.09089,-0.15750000000000003,0.35000000000000003,0.5425000000000001,-0.6679333528208127,-0.5632855890090617,0.233849751534639
1747151818.6459837,0.999302,-0.0042699999999999995,0.09235399999999999,-0.035,0.43750000000000006,0.5950000000000001,-0.6679333528208127,-0.5632855890090617,0.233849751534639
1747151818.6508462,1.000644,-0.0057339999999999995,0.093086,-0.08750000000000001,0.385,0.6300000000000001,-0.6679333528208127,-0.5632855890090617,0.233849751534639
1747151818.6557195,0.997594,-0.002196,0.092598,-0.22750000000000004,0.31500000000000006,0.6300000000000001,-0.6679333528208127,-0.5632855890090617,0.233849751534639
1747151818.6605947,0.999668,-0.00061,0.092842,-0.1925,0.3325,0.5425000000000001,-0.6679333528208127,-0.5632855890090617,0.233849751534639
1747151818.6655233,0.999912,0.0017079999999999999,0.092232,-0.22750000000000004,0.22750000000000004,0.45500000000000007,-0.6679333528208127,-0.5632855890090617,0.233849751534639
1747151818.670366,0.99979,0.0034159999999999998,0.091622,-0.17500000000000002,0.22750000000000004,0.42000000000000004,-0.6679333528208127,-0.5632855890090617,0.233849751534639
1747151818.6752477,1.001864,0.001098,0.092598,-0.14,0.2625,0.42000000000000004,-0.6796258403975446,-0.5597778427360421,0.2392575270388775
1747151818.680113,1.005158,-0.001464,0.09174399999999999,-0.2625,0.35000000000000003,0.49000000000000005,-0.6796258403975446,-0.5597778427360421,0.2392575270388775
1747151818.6849787,1.00223,-0.00183,0.091378,-0.21000000000000002,0.5425000000000001,0.5950000000000001,-0.6796258403975446,-0.5597778427360421,0.2392575270388775
1747151818.6898549,0.99918,-0.002562,0.093452,-0.15750000000000003,0.5075000000000001,0.665,-0.6796258403975446,-0.5597778427360421,0.2392575270388775
1747151818.694724,0.997472,0.000244,0.094306,-0.21000000000000002,0.4025,0.6300000000000001,-0.6796258403975446,-0.5597778427360421,0.2392575270388775
1747151818.699598,1.000644,-0.001952,0.094428,-0.12250000000000001,0.1925,0.525,-0.6796258403975446,-0.5597778427360421,0.2392575270388775
1747151818.7044666,1.0004,-0.00183,0.093208,-0.17500000000000002,0.2625,0.42000000000000004,-0.6796258403975446,-0.5597778427360421,0.2392575270388775
1747151818.7093382,1.001376,-0.000732,0.093818,-0.14,0.2625,0.4025,-0.6796258403975446,-0.5597778427360421,0.2392575270388775
1747151818.71421,1.001742,-0.000732,0.092598,-0.17500000000000002,0.29750000000000004,0.7000000000000001,-0.6796258403975446,-0.5597778427360421,0.2392575270388775
1747151818.7190819,1.002596,-0.000976,0.091256,-0.15750000000000003,0.3325,0.7175,-0.6796258403975446,-0.5597778427360421,0.2392575270388775
1747151818.7239673,1.000278,0.000366,0.092842,-0.035,0.29750000000000004,0.6300000000000001,-0.6758257819351067,-0.5615317158725519,0.24086524408067816
1747151818.728832,0.9989359999999999,-0.0030499999999999998,0.093086,-0.0175,0.21000000000000002,0.5950000000000001,-0.6758257819351067,-0.5615317158725519,0.24086524408067816
1747151818.7337017,0.998204,-0.0034159999999999998,0.095526,-0.07,0.24500000000000002,0.43750000000000006,-0.6758257819351067,-0.5615317158725519,0.24086524408067816
1747151818.7385676,0.998448,-0.001586,0.09272,-0.035,0.10500000000000001,0.4025,-0.6758257819351067,-0.5615317158725519,0.24086524408067816
1747151818.743447,1.003328,0.0,0.090524,-0.052500000000000005,0.0175,0.5425000000000001,-0.6758257819351067,-0.5615317158725519,0.24086524408067816
1747151818.7483191,1.00345,0.000976,0.09028,-0.10500000000000001,0.22750000000000004,0.6475000000000001,-0.6758257819351067,-0.5615317158725519,0.24086524408067816
1747151818.7532048,1.00284,-0.00061,0.092232,-0.15750000000000003,0.43750000000000006,0.665,-0.6758257819351067,-0.5615317158725519,0.24086524408067816
1747151818.7580717,0.998204,-0.004026,0.094306,-0.21000000000000002,0.525,0.6825000000000001,-0.6758257819351067,-0.5615317158725519,0.24086524408067816
1747151818.7629359,0.996618,-0.005978,0.09528199999999999,-0.1925,0.36750000000000005,0.6300000000000001,-0.6758257819351067,-0.5615317158725519,0.24086524408067816
1747151818.7678134,0.999668,-0.002196,0.093574,-0.14,0.24500000000000002,0.47250000000000003,-0.6726103478515054,-0.5597778427360421,0.23838059047062263
1747151818.7726808,1.003694,-0.001098,0.092232,-0.1925,0.10500000000000001,0.36750000000000005,-0.6726103478515054,-0.5597778427360421,0.23838059047062263
1747151818.777556,1.003572,0.000366,0.09089,-0.15750000000000003,0.22750000000000004,0.4025,-0.6726103478515054,-0.5597778427360421,0.23838059047062263
1747151818.7824352,1.001986,0.0013419999999999999,0.09113399999999999,-0.1925,0.4025,0.5775,-0.6726103478515054,-0.5597778427360421,0.23838059047062263
1747151818.7873063,0.999912,0.000244,0.092598,-0.15750000000000003,0.3325,0.5950000000000001,-0.6726103478515054,-0.5597778427360421,0.23838059047062263
1747151818.792175,0.998692,-0.002074,0.093818,-0.07,0.3325,0.6475000000000001,-0.6726103478515054,-0.5597778427360421,0.23838059047062263
1747151818.7970479,1.000034,-0.004026,0.09394,-0.052500000000000005,0.24500000000000002,0.56,-0.6726103478515054,-0.5597778427360421,0.23838059047062263
1747151818.8019216,0.999302,-0.004758,0.09211,-0.07,0.15750000000000003,0.45500000000000007,-0.6726103478515054,-0.5597778427360421,0.23838059047062263
1747151818.8068187,1.001254,-0.000732,0.090768,-0.07,0.22750000000000004,0.5425000000000001,-0.6726103478515054,-0.5597778427360421,0.23838059047062263
1747151818.8116913,1.001864,0.001464,0.092476,-0.10500000000000001,0.1925,0.43750000000000006,-0.6726103478515054,-0.5597778427360421,0.23838059047062263
1747151818.816553,1.001864,-0.00061,0.089548,-0.17500000000000002,0.29750000000000004,0.525,-0.6714410990938322,-0.5627009646302251,0.23677287342882197
1747151818.8214319,1.000766,-0.000244,0.092598,-0.1925,0.29750000000000004,0.5950000000000001,-0.6714410990938322,-0.5627009646302251,0.23677287342882197
1747151818.8263347,1.0004,-0.004148,0.093452,-0.22750000000000004,0.6825000000000001,0.8225000000000001,-0.6714410990938322,-0.5627009646302251,0.23677287342882197
1747151818.8319485,0.999424,-0.003538,0.093208,-0.07,0.28,0.525,-0.6714410990938322,-0.5627009646302251,0.23677287342882197
1747151818.8360581,0.999668,-0.001586,0.093208,-0.15750000000000003,0.2625,0.4025,-0.6714410990938322,-0.5627009646302251,0.23677287342882197
1747151818.8409383,1.001254,-0.000366,0.0915,-0.0175,0.15750000000000003,0.4025,-0.6714410990938322,-0.5627009646302251,0.23677287342882197
1747151818.8458273,1.002962,0.0017079999999999999,0.09174399999999999,-0.15750000000000003,0.36750000000000005,0.5425000000000001,-0.6714410990938322,-0.5627009646302251,0.23677287342882197
1747151818.8507004,1.004182,-0.030744,0.092476,-0.10500000000000001,0.35000000000000003,0.56,-0.6714410990938322,-0.5627009646302251,0.23677287342882197
1747151818.8555737,1.000888,-0.0023179999999999997,0.093452,-0.12250000000000001,0.36750000000000005,0.6300000000000001,-0.6714410990938322,-0.5627009646302251,0.23677287342882197
1747151818.8604398,0.999302,-0.003904,0.091866,-0.15750000000000003,0.4025,0.6300000000000001,-0.6714410990938322,-0.5252850043846828,0.23940368313358668
1747151818.865318,0.998204,-0.000732,0.09528199999999999,-0.07,0.31500000000000006,0.525,-0.6781642794504531,-0.5603624671148787,0.23940368313358668
1747151818.8701901,1.000522,-0.00122,0.094794,-0.07,0.22750000000000004,0.525,-0.6781642794504531,-0.5603624671148787,0.23940368313358668
1747151818.875067,1.000156,-0.0013419999999999999,0.09174399999999999,0.0,0.15750000000000003,0.4025,-0.6781642794504531,-0.5603624671148787,0.23940368313358668
1747151818.8799384,1.001254,-0.0026839999999999998,0.092232,-0.12250000000000001,0.21000000000000002,0.47250000000000003,-0.6781642794504531,-0.5603624671148787,0.23940368313358668
1747151818.885539,1.002352,-0.000122,0.091256,-0.08750000000000001,0.28,0.56,-0.6781642794504531,-0.5603624671148787,0.23940368313358668
1747151818.8896766,0.99918,-0.002928,0.091256,-0.12250000000000001,0.35000000000000003,0.6300000000000001,-0.6781642794504531,-0.5603624671148787,0.23940368313358668
1747151818.8945448,1.00101,-0.001952,0.093818,-0.12250000000000001,0.385,0.6825000000000001,-0.6781642794504531,-0.5603624671148787,0.23940368313358668
1747151818.899415,0.99857,-0.003294,0.092476,-0.14,0.31500000000000006,0.6125,-0.6781642794504531,-0.5603624671148787,0.23940368313358668
1747151818.9042883,0.999424,-0.004026,0.092476,-0.12250000000000001,0.22750000000000004,0.5075000000000001,-0.6781642794504531,-0.5603624671148787,0.23940368313358668
1747151818.9091852,1.001376,-0.0026839999999999998,0.093696,-0.12250000000000001,0.1925,0.43750000000000006,-0.6635486699795381,-0.5609470914937152,0.24291142940660626
1747151818.9140549,1.002718,-0.00183,0.091378,-0.12250000000000001,0.21000000000000002,0.43750000000000006,-0.6635486699795381,-0.5609470914937152,0.24291142940660626
1747151818.9189346,1.002352,-0.000244,0.0915,-0.035,0.1925,0.5075000000000001,-0.6635486699795381,-0.5609470914937152,0.24291142940660626
1747151818.923808,1.00162,-0.002562,0.0915,-0.10500000000000001,0.2625,0.6125,-0.6635486699795381,-0.5609470914937152,0.24291142940660626
1747151818.9286826,0.999912,-0.002928,0.0915,-0.07,0.31500000000000006,0.6475000000000001,-0.6635486699795381,-0.5609470914937152,0.24291142940660626
1747151818.9335613,0.99918,-0.003538,0.092964,-0.052500000000000005,0.36750000000000005,0.6125,-0.6635486699795381,-0.5609470914937152,0.24291142940660626
1747151818.9391558,0.998448,-0.001586,0.092232,-0.052500000000000005,0.24500000000000002,0.5075000000000001,-0.6635486699795381,-0.5609470914937152,0.24291142940660626
1747151818.9433076,0.998814,-0.002928,0.0915,-0.052500000000000005,0.24500000000000002,0.47250000000000003,-0.6635486699795381,-0.5609470914937152,0.24291142940660626
1747151818.948171,1.002718,-0.002806,0.09089,-0.1925,0.29750000000000004,0.47250000000000003,-0.6635486699795381,-0.5609470914937152,0.24291142940660626
1747151818.95304,1.003816,0.00061,0.089792,-0.21000000000000002,0.385,0.5075000000000001,-0.6635486699795381,-0.5609470914937152,0.24291142940660626
1747151818.9579065,1.00101,-0.000976,0.09174399999999999,-0.2625,0.36750000000000005,0.56,-0.6708564747149957,-0.5521777258111663,0.23706518561824028
1747151818.962794,0.999912,-0.0037819999999999998,0.090158,-0.17500000000000002,0.45500000000000007,0.6825000000000001,-0.6708564747149957,-0.5521777258111663,0.23706518561824028
1747151818.9676702,0.9989359999999999,-0.00366,0.091378,-0.035,0.35000000000000003,0.5950000000000001,-0.6708564747149957,-0.5521777258111663,0.23706518561824028
1747151818.972574,0.999058,-0.0023179999999999997,0.092842,-0.08750000000000001,0.17500000000000002,0.5075000000000001,-0.6708564747149957,-0.5521777258111663,0.23706518561824028
1747151818.9774148,1.000644,0.00061,0.092842,-0.035,0.14,0.45500000000000007,-0.6708564747149957,-0.5521777258111663,0.23706518561824028
1747151818.9822857,1.003694,0.001464,0.091378,0.0175,0.15750000000000003,0.45500000000000007,-0.6708564747149957,-0.5521777258111663,0.23706518561824028
1747151818.9872265,1.000766,-0.0008539999999999999,0.09089,-0.15750000000000003,0.29750000000000004,0.47250000000000003,-0.6708564747149957,-0.5521777258111663,0.23706518561824028
1747151818.9920385,1.001864,-0.0017079999999999999,0.092476,-0.10500000000000001,0.42000000000000004,0.6300000000000001,-0.6708564747149957,-0.5521777258111663,0.23706518561824028
1747151818.9968963,1.000278,-0.00122,0.09089,-0.15750000000000003,0.43750000000000006,0.6475000000000001,-0.6708564747149957,-0.5521777258111663,0.23706518561824028
1747151819.0017729,0.998204,-0.002806,0.092476,-0.21000000000000002,0.35000000000000003,0.56,-0.6734872844197604,-0.5629932768196434,0.24057293189125986
1747151819.0066447,1.000278,-0.001586,0.09394,-0.1925,0.24500000000000002,0.5075000000000001,-0.6734872844197604,-0.5629932768196434,0.24057293189125986
1747151819.0115333,0.9995459999999999,-0.001952,0.093452,-0.1925,0.29750000000000004,0.49000000000000005,-0.6734872844197604,-0.5629932768196434,0.24057293189125986
1747151819.0163956,1.0004,-0.000732,0.0915,-0.14,0.22750000000000004,0.49000000000000005,-0.6734872844197604,-0.5629932768196434,0.24057293189125986
1747151819.0212674,1.000766,-0.000976,0.09174399999999999,-0.12250000000000001,0.24500000000000002,0.525,-0.6734872844197604,-0.5629932768196434,0.24057293189125986
1747151819.026139,1.001498,-0.000732,0.091378,-0.12250000000000001,0.31500000000000006,0.5775,-0.6734872844197604,-0.5629932768196434,0.24057293189125986
1747151819.0310092,1.000522,-0.00122,0.091378,-0.12250000000000001,0.3325,0.6300000000000001,-0.6734872844197604,-0.5629932768196434,0.24057293189125986
1747151819.0358913,0.998448,-0.002562,0.091012,-0.052500000000000005,0.29750000000000004,0.5950000000000001,-0.6734872844197604,-0.5629932768196434,0.24057293189125986
1747151819.0432925,1.000034,-0.002928,0.09394,-0.0175,0.22750000000000004,0.5775,-0.6734872844197604,-0.5629932768196434,0.24057293189125986
1747151819.0462613,1.000034,-0.002928,0.09394,-0.0175,0.22750000000000004,0.47250000000000003,-0.6734872844197604,-0.5629932768196434,0.24057293189125986
1747151819.0511308,1.001376,-0.00122,0.093574,0.0175,0.17500000000000002,0.43750000000000006,-0.6729026600409237,-0.5539315989476761,0.24247296112247882
1747151819.0560095,1.001376,-0.001464,0.090768,-0.0175,0.21000000000000002,0.6125,-0.6729026600409237,-0.5539315989476761,0.24247296112247882
1747151819.0608785,1.001986,-0.0013419999999999999,0.092598,-0.035,0.29750000000000004,0.6475000000000001,-0.6729026600409237,-0.5539315989476761,0.24247296112247882
1747151819.0657496,1.000156,-0.00061,0.09235399999999999,-0.052500000000000005,0.35000000000000003,0.5950000000000001,-0.6729026600409237,-0.5539315989476761,0.24247296112247882
1747151819.0706255,0.9989359999999999,-0.0034159999999999998,0.093208,-0.10500000000000001,0.31500000000000006,0.56,-0.6729026600409237,-0.5539315989476761,0.24247296112247882
1747151819.0755007,0.99918,-0.003172,0.09211,-0.14,0.28,0.525,-0.6729026600409237,-0.5539315989476761,0.24247296112247882
1747151819.0803704,1.001254,-0.0017079999999999999,0.091866,-0.17500000000000002,0.24500000000000002,0.49000000000000005,-0.6729026600409237,-0.5539315989476761,0.24247296112247882
1747151819.0852444,1.000888,-0.0023179999999999997,0.088938,-0.21000000000000002,0.2625,0.5075000000000001,-0.6729026600409237,-0.5539315989476761,0.24247296112247882
1747151819.0901172,1.001864,0.0008539999999999999,0.09028,-0.21000000000000002,0.385,0.6125,-0.6729026600409237,-0.5539315989476761,0.24247296112247882
1747151819.0963242,1.0004,-0.0008539999999999999,0.09272,-0.22750000000000004,0.43750000000000006,0.5950000000000001,-0.6729026600409237,-0.5551008477053493,0.24700380005846242
1747151819.0998616,1.001498,-0.003294,0.091378,-0.10500000000000001,0.35000000000000003,0.5950000000000001,-0.6729026600409237,-0.5551008477053493,0.24700380005846242
1747151819.1047266,1.001132,-0.0037819999999999998,0.089914,-0.0175,0.2625,0.6300000000000001,-0.6729026600409237,-0.5551008477053493,0.24700380005846242
1747151819.109599,0.998204,-0.00183,0.09113399999999999,-0.08750000000000001,0.24500000000000002,0.5775,-0.6729026600409237,-0.5551008477053493,0.24700380005846242
1747151819.1144714,1.000278,0.0008539999999999999,0.09333,-0.052500000000000005,0.22750000000000004,0.525,-0.6729026600409237,-0.5551008477053493,0.24700380005846242
1747151819.1193438,1.003206,-0.00244,0.09235399999999999,-0.10500000000000001,0.22750000000000004,0.5075000000000001,-0.6729026600409237,-0.5551008477053493,0.24700380005846242
1747151819.1242113,0.999668,-0.000488,0.089792,-0.052500000000000005,0.1925,0.49000000000000005,-0.6729026600409237,-0.5551008477053493,0.24700380005846242
1747151819.1290998,1.001376,-0.000976,0.093696,-0.07,0.28,0.5425000000000001,-0.6729026600409237,-0.5551008477053493,0.24700380005846242
1747151819.133971,1.001132,-0.000976,0.09211,-0.0175,0.2625,0.5775,-0.6729026600409237,-0.5551008477053493,0.24700380005846242
1747151819.1388466,1.000766,-0.001098,0.092842,-0.10500000000000001,0.3325,0.6475000000000001,-0.6729026600409237,-0.5551008477053493,0.24700380005846242
1747151819.1437223,1.000522,-0.0026839999999999998,0.093574,-0.08750000000000001,0.3325,0.6125,-0.6775796550716164,-0.5589009061677872,0.24861151710026308
1747151819.149361,0.999668,-0.001586,0.093086,-0.21000000000000002,0.35000000000000003,0.56,-0.6775796550716164,-0.5589009061677872,0.24861151710026308
1747151819.1534617,0.99857,-0.00183,0.09235399999999999,-0.21000000000000002,0.35000000000000003,0.56,-0.6775796550716164,-0.5589009061677872,0.24861151710026308
1747151819.1583445,1.001132,-0.001952,0.090646,-0.17500000000000002,0.21000000000000002,0.5425000000000001,-0.6775796550716164,-0.5589009061677872,0.24861151710026308
1747151819.163219,1.001864,-0.000976,0.0915,-0.15750000000000003,0.24500000000000002,0.56,-0.6775796550716164,-0.5589009061677872,0.24861151710026308
1747151819.1680894,1.002474,-0.000976,0.0915,0.052500000000000005,0.28,0.6300000000000001,-0.6775796550716164,-0.5589009061677872,0.24861151710026308
1747151819.172961,1.00223,-0.000732,0.09235399999999999,-0.0175,0.2625,0.6125,-0.6775796550716164,-0.5589009061677872,0.24861151710026308
1747151819.177834,0.999912,-0.002074,0.09211,0.0,0.28,0.56,-0.6775796550716164,-0.5589009061677872,0.24861151710026308
1747151819.1827054,1.001132,-0.000976,0.09174399999999999,-0.10500000000000001,0.24500000000000002,0.5075000000000001,-0.6775796550716164,-0.5589009061677872,0.24861151710026308
1747151819.187579,0.99918,-0.001952,0.09272,-0.052500000000000005,0.24500000000000002,0.47250000000000003,-0.6775796550716164,-0.5589009061677872,0.24861151710026308
1747151819.1924493,1.000034,-0.000732,0.090768,-0.07,0.1925,0.49000000000000005,-0.6778719672610348,-0.5565624086524408,0.2453960830166618
1747151819.1973364,1.00223,0.000366,0.090402,-0.14,0.31500000000000006,0.6475000000000001,-0.6778719672610348,-0.5565624086524408,0.2453960830166618
1747151819.2029505,1.001986,0.000244,0.092232,-0.22750000000000004,0.4025,0.5950000000000001,-0.6778719672610348,-0.5565624086524408,0.2453960830166618
1747151819.2070806,1.003328,-0.00183,0.092598,-0.10500000000000001,0.3325,0.5775,-0.6778719672610348,-0.5565624086524408,0.2453960830166618
1747151819.2119536,1.000278,-0.002074,0.09211,-0.08750000000000001,0.29750000000000004,0.5425000000000001,-0.6778719672610348,-0.5565624086524408,0.2453960830166618
1747151819.216841,1.000034,-0.002928,0.09113399999999999,-0.14,0.35000000000000003,0.5075000000000001,-0.6778719672610348,-0.5565624086524408,0.2453960830166618
1747151819.221693,0.999424,-0.003294,0.09211,0.0,0.22750000000000004,0.5075000000000001,-0.6778719672610348,-0.5565624086524408,0.2453960830166618
1747151819.226567,1.000766,-0.001464,0.090402,-0.10500000000000001,0.22750000000000004,0.5075000000000001,-0.6778719672610348,-0.5565624086524408,0.2453960830166618
1747151819.2314382,1.00101,-0.00183,0.08942599999999999,-0.0175,0.17500000000000002,0.5425000000000001,-0.6778719672610348,-0.5565624086524408,0.2453960830166618
1747151819.2363558,1.0004,-0.001586,0.0915,0.0,0.24500000000000002,0.5775,-0.6699795381467407,-0.5650394621455714,0.2459807073954984
1747151819.241225,1.000278,-0.000122,0.092964,-0.035,0.1925,0.5950000000000001,-0.6699795381467407,-0.5650394621455714,0.2459807073954984
1747151819.246092,0.999424,-0.004514,0.09272,0.035,0.31500000000000006,0.6475000000000001,-0.6699795381467407,-0.5650394621455714,0.2459807073954984
1747151819.2509713,0.99918,-0.002196,0.091988,0.0175,0.22750000000000004,0.5075000000000001,-0.6699795381467407,-0.5650394621455714,0.2459807073954984
1747151819.256564,1.001864,-0.0017079999999999999,0.090646,-0.035,0.17500000000000002,0.49000000000000005,-0.6699795381467407,-0.5650394621455714,0.2459807073954984
1747151819.2607727,1.00101,0.00061,0.091622,-0.07,0.17500000000000002,0.49000000000000005,-0.6699795381467407,-0.5650394621455714,0.2459807073954984
1747151819.2655964,1.002474,-0.0013419999999999999,0.09028,0.0,0.2625,0.45500000000000007,-0.6699795381467407,-0.5650394621455714,0.2459807073954984
1747151819.2704704,1.000034,-0.000732,0.09028,-0.17500000000000002,0.385,0.5950000000000001,-0.6699795381467407,-0.5650394621455714,0.2459807073954984
1747151819.2753468,0.99979,-0.001952,0.092232,-0.22750000000000004,0.4025,0.5775,-0.6699795381467407,-0.5650394621455714,0.2459807073954984
1747151819.2802222,0.998082,-0.000488,0.092842,-0.15750000000000003,0.35000000000000003,0.56,-0.6699795381467407,-0.5650394621455714,0.2459807073954984
1747151819.2850854,1.000522,-0.00061,0.092842,-0.10500000000000001,0.22750000000000004,0.47250000000000003,-0.667348728441976,-0.5589009061677872,0.2427652733118971
1747151819.2899628,1.000156,-0.002074,0.0915,-0.12250000000000001,0.31500000000000006,0.5775,-0.667348728441976,-0.5589009061677872,0.2427652733118971
1747151819.294835,0.9989359999999999,-0.0008539999999999999,0.093208,-0.052500000000000005,0.22750000000000004,0.5075000000000001,-0.667348728441976,-0.5589009061677872,0.2427652733118971
1747151819.2997122,1.000888,-0.000488,0.092964,-0.052500000000000005,0.24500000000000002,0.5425000000000001,-0.667348728441976,-0.5589009061677872,0.2427652733118971
1747151819.3045838,1.00101,-0.001586,0.089914,-0.035,0.22750000000000004,0.6125,-0.667348728441976,-0.5589009061677872,0.2427652733118971
1747151819.31018,1.000888,-0.001586,0.090646,0.0175,0.1925,0.5950000000000001,-0.667348728441976,-0.5589009061677872,0.2427652733118971
1747151819.314376,0.999912,-0.00122,0.09272,-0.0175,0.2625,0.5775,-0.667348728441976,-0.5589009061677872,0.2427652733118971
1747151819.3192308,0.9995459999999999,-0.002562,0.093086,-0.07,0.17500000000000002,0.5775,-0.667348728441976,-0.5589009061677872,0.2427652733118971
1747151819.3240876,1.001132,-0.000732,0.093452,0.0,0.22750000000000004,0.5075000000000001,-0.667348728441976,-0.5589009061677872,0.2427652733118971
1747151819.328958,1.002596,-0.000244,0.09235399999999999,-0.07,0.24500000000000002,0.49000000000000005,-0.6764104063139433,-0.5632855890090617,0.2418883367436422
1747151819.3338294,1.002474,-0.001586,0.093574,-0.0175,0.1925,0.5075000000000001,-0.6764104063139433,-0.5632855890090617,0.2418883367436422
1747151819.3387105,1.001376,-0.002562,0.091988,0.0,0.29750000000000004,0.5775,-0.6764104063139433,-0.5632855890090617,0.2418883367436422
1747151819.3435848,1.00162,-0.0008539999999999999,0.091378,0.0175,0.2625,0.5775,-0.6764104063139433,-0.5632855890090617,0.2418883367436422
1747151819.348456,0.9989359999999999,-0.002196,0.093452,-0.035,0.22750000000000004,0.5425000000000001,-0.6764104063139433,-0.5632855890090617,0.2418883367436422
1747151819.3533306,0.9995459999999999,-0.002806,0.091622,-0.10500000000000001,0.2625,0.5075000000000001,-0.6764104063139433,-0.5632855890090617,0.2418883367436422
1747151819.3582242,1.000644,-0.0030499999999999998,0.09174399999999999,-0.14,0.29750000000000004,0.5075000000000001,-0.6764104063139433,-0.5632855890090617,0.2418883367436422
1747151819.3641028,1.000522,-0.003538,0.09028,-0.17500000000000002,0.385,0.56,-0.6764104063139433,-0.5632855890090617,0.2418883367436422
1747151819.3679624,1.001986,-0.0017079999999999999,0.091622,-0.22750000000000004,0.385,0.56,-0.6764104063139433,-0.5632855890090617,0.2418883367436422
1747151819.3728325,1.002108,-0.001952,0.091622,-0.21000000000000002,0.35000000000000003,0.5950000000000001,-0.6764104063139433,-0.5632855890090617,0.2418883367436422
1747151819.3777056,1.00162,-0.002074,0.091378,-0.08750000000000001,0.35000000000000003,0.56,-0.6743642209880152,-0.5589009061677872,0.24144986845951477
1747151819.3825848,1.000522,-0.0030499999999999998,0.092476,-0.0175,0.28,0.525,-0.6743642209880152,-0.5589009061677872,0.24144986845951477
1747151819.3874547,0.99979,-0.001586,0.092842,-0.035,0.2625,0.525,-0.6743642209880152,-0.5589009061677872,0.24144986845951477
1747151819.392323,1.001376,-0.0026839999999999998,0.090036,-0.0175,0.24500000000000002,0.5075000000000001,-0.6743642209880152,-0.5589009061677872,0.24144986845951477
1747151819.3971913,1.000034,-0.003538,0.09113399999999999,-0.08750000000000001,0.17500000000000002,0.47250000000000003,-0.6743642209880152,-0.5589009061677872,0.24144986845951477
1747151819.402074,1.002474,-0.001098,0.089914,-0.07,0.21000000000000002,0.525,-0.6743642209880152,-0.5589009061677872,0.24144986845951477
1747151819.4069436,1.001498,-0.0023179999999999997,0.091988,-0.17500000000000002,0.2625,0.6300000000000001,-0.6743642209880152,-0.5589009061677872,0.24144986845951477
1747151819.411826,1.001742,-0.00122,0.09235399999999999,-0.21000000000000002,0.3325,0.5775,-0.6743642209880152,-0.5589009061677872,0.24144986845951477
1747151819.4175518,1.000644,-0.001464,0.092232,-0.1925,0.29750000000000004,0.5425000000000001,-0.6743642209880152,-0.5589009061677872,0.24144986845951477
1747151819.4215639,1.001498,-0.0008539999999999999,0.092842,-0.15750000000000003,0.36750000000000005,0.6300000000000001,-0.6743642209880152,-0.5589009061677872,0.24144986845951477
1747151819.4264386,1.00162,-0.002196,0.090036,-0.14,0.2625,0.49000000000000005,-0.6726103478515054,-0.5612394036831336,0.24071908798596903
1747151819.4313178,1.000522,-0.002196,0.09211,-0.12250000000000001,0.2625,0.5425000000000001,-0.6726103478515054,-0.5612394036831336,0.24071908798596903
1747151819.4361866,1.001132,0.0,0.090402,-0.10500000000000001,0.28,0.5425000000000001,-0.6726103478515054,-0.5612394036831336,0.24071908798596903
1747151819.441056,0.99979,-0.0008539999999999999,0.094184,-0.052500000000000005,0.28,0.5950000000000001,-0.6726103478515054,-0.5612394036831336,0.24071908798596903
1747151819.445924,0.998692,-0.002196,0.091622,-0.0175,0.28,0.5775,-0.6726103478515054,-0.5612394036831336,0.24071908798596903
1747151819.4508028,1.000644,-0.000976,0.09174399999999999,-0.08750000000000001,0.24500000000000002,0.5950000000000001,-0.6726103478515054,-0.5612394036831336,0.24071908798596903
1747151819.4556785,1.0004,-0.0017079999999999999,0.09235399999999999,-0.035,0.24500000000000002,0.56,-0.6726103478515054,-0.5612394036831336,0.24071908798596903
1747151819.4605463,1.000888,-0.0023179999999999997,0.09235399999999999,-0.035,0.21000000000000002,0.525,-0.6726103478515054,-0.5612394036831336,0.24071908798596903
1747151819.4654312,0.998814,-0.002928,0.09113399999999999,-0.035,0.2625,0.49000000000000005,-0.6726103478515054,-0.5612394036831336,0.24071908798596903
1747151819.4711485,1.001254,-0.001952,0.08967,-0.10500000000000001,0.31500000000000006,0.49000000000000005,-0.668225665010231,-0.5618240280619702,0.2442268342589886
1747151819.4751716,1.001254,-0.0008539999999999999,0.09235399999999999,-0.17500000000000002,0.28,0.525,-0.668225665010231,-0.5618240280619702,0.2442268342589886
1747151819.4800444,1.001376,-0.0023179999999999997,0.093818,0.035,0.2625,0.6125,-0.668225665010231,-0.5618240280619702,0.2442268342589886
1747151819.4849174,1.002108,-0.0008539999999999999,0.0915,-0.15750000000000003,0.3325,0.6125,-0.668225665010231,-0.5618240280619702,0.2442268342589886
1747151819.489793,1.00101,-0.0013419999999999999,0.091012,-0.12250000000000001,0.31500000000000006,0.5775,-0.668225665010231,-0.5618240280619702,0.2442268342589886
1747151819.4946678,1.000278,-0.002074,0.09235399999999999,-0.14,0.3325,0.525,-0.668225665010231,-0.5618240280619702,0.2442268342589886
1747151819.499543,0.9995459999999999,-0.001098,0.09272,-0.12250000000000001,0.24500000000000002,0.5425000000000001,-0.668225665010231,-0.5618240280619702,0.2442268342589886
1747151819.504415,1.002596,-0.002562,0.09235399999999999,-0.052500000000000005,0.22750000000000004,0.56,-0.668225665010231,-0.5618240280619702,0.2442268342589886
1747151819.5092888,1.001498,-0.0042699999999999995,0.092598,-0.07,0.2625,0.5425000000000001,-0.668225665010231,-0.5618240280619702,0.2442268342589886
1747151819.5141633,1.000156,-0.00183,0.091866,-0.10500000000000001,0.35000000000000003,0.525,-0.668225665010231,-0.5618240280619702,0.2442268342589886
1747151819.5190477,1.000156,-0.001464,0.092842,-0.14,0.24500000000000002,0.5075000000000001,-0.6772873428821982,-0.5597778427360421,0.2442268342589886
1747151819.5248005,1.00101,-0.001586,0.091622,-0.15750000000000003,0.28,0.5425000000000001,-0.6772873428821982,-0.5597778427360421,0.2442268342589886
1747151819.5288017,1.000034,-0.0017079999999999999,0.093452,-0.12250000000000001,0.1925,0.49000000000000005,-0.6772873428821982,-0.5597778427360421,0.2442268342589886
1747151819.5336688,1.0004,-0.002196,0.093696,-0.035,0.24500000000000002,0.525,-0.6772873428821982,-0.5597778427360421,0.2442268342589886
1747151819.5385368,1.000888,-0.001952,0.091988,-0.07,0.24500000000000002,0.5075000000000001,-0.6772873428821982,-0.5597778427360421,0.2442268342589886
1747151819.543432,0.99979,-0.00122,0.09235399999999999,-0.08750000000000001,0.3325,0.5425000000000001,-0.6772873428821982,-0.5597778427360421,0.2442268342589886
1747151819.5483007,1.000278,-0.00366,0.092476,-0.15750000000000003,0.28,0.5950000000000001,-0.6772873428821982,-0.5597778427360421,0.2442268342589886
1747151819.5531754,1.001132,-0.0023179999999999997,0.090768,-0.21000000000000002,0.36750000000000005,0.5950000000000001,-0.6772873428821982,-0.5597778427360421,0.2442268342589886
1747151819.5580492,1.001742,-0.00244,0.092476,-0.21000000000000002,0.28,0.47250000000000003,-0.6772873428821982,-0.5597778427360421,0.2442268342589886
1747151819.5629249,1.001986,-0.0017079999999999999,0.09235399999999999,-0.17500000000000002,0.24500000000000002,0.45500000000000007,-0.6737795966091786,-0.5641625255773166,0.24729611224788073
1747151819.567797,1.001376,0.000122,0.09235399999999999,-0.10500000000000001,0.17500000000000002,0.49000000000000005,-0.6737795966091786,-0.5641625255773166,0.24729611224788073
1747151819.5726726,0.998692,-0.0037819999999999998,0.091378,-0.08750000000000001,0.31500000000000006,0.6125,-0.6737795966091786,-0.5641625255773166,0.24729611224788073
1747151819.57844,1.001254,-0.002562,0.091988,-0.052500000000000005,0.31500000000000006,0.5950000000000001,-0.6737795966091786,-0.5641625255773166,0.24729611224788073
1747151819.5824153,1.002352,0.000244,0.093086,-0.14,0.29750000000000004,0.5950000000000001,-0.6737795966091786,-0.5641625255773166,0.24729611224788073
1747151819.5872908,1.001498,-0.000244,0.092232,-0.1925,0.3325,0.6125,-0.6737795966091786,-0.5641625255773166,0.24729611224788073
1747151819.592181,0.999912,-0.0030499999999999998,0.0915,-0.07,0.21000000000000002,0.56,-0.6737795966091786,-0.5641625255773166,0.24729611224788073
1747151819.5970361,1.000888,0.000122,0.093696,-0.035,0.2625,0.56,-0.6737795966091786,-0.5641625255773166,0.24729611224788073
1747151819.601909,1.000156,-0.000976,0.092598,-0.12250000000000001,0.35000000000000003,0.56,-0.6737795966091786,-0.5641625255773166,0.24729611224788073
1747151819.6067812,1.00162,0.000122,0.09211,-0.10500000000000001,0.31500000000000006,0.5425000000000001,-0.6737795966091786,-0.5641625255773166,0.24729611224788073
1747151819.611657,1.001132,-0.00122,0.0915,-0.1925,0.3325,0.56,-0.6769950306927799,-0.5597778427360421,0.2430575855013154
1747151819.6165388,1.0004,-0.0013419999999999999,0.091866,-0.22750000000000004,0.385,0.6300000000000001,-0.6769950306927799,-0.5597778427360421,0.2430575855013154
1747151819.6214128,1.001376,0.000366,0.093574,-0.14,0.29750000000000004,0.5425000000000001,-0.6769950306927799,-0.5597778427360421,0.2430575855013154
1747151819.6262894,0.999668,-0.000976,0.09333,-0.052500000000000005,0.24500000000000002,0.5775,-0.6769950306927799,-0.5597778427360421,0.2430575855013154
1747151819.6320267,0.9989359999999999,-0.002806,0.090768,-0.052500000000000005,0.21000000000000002,0.5425000000000001,-0.6769950306927799,-0.5597778427360421,0.2430575855013154
1747151819.6360304,0.9989359999999999,-0.002806,0.093574,-0.10500000000000001,0.22750000000000004,0.5075000000000001,-0.6769950306927799,-0.5597778427360421,0.2430575855013154
1747151819.6409023,1.000766,-0.0017079999999999999,0.09235399999999999,-0.052500000000000005,0.22750000000000004,0.5425000000000001,-0.6769950306927799,-0.5597778427360421,0.2430575855013154
1747151819.6457741,1.000644,-0.001464,0.090646,-0.035,0.29750000000000004,0.56,-0.6769950306927799,-0.5597778427360421,0.2430575855013154
1747151819.650653,1.002718,-0.002928,0.091378,-0.052500000000000005,0.1925,0.5425000000000001,-0.6769950306927799,-0.5597778427360421,0.2430575855013154
1747151819.6555283,0.998814,-0.001586,0.09028,-0.17500000000000002,0.2625,0.6300000000000001,-0.6769950306927799,-0.5597778427360421,0.2430575855013154
1747151819.6603973,1.000034,-0.000976,0.092598,-0.21000000000000002,0.31500000000000006,0.5950000000000001,-0.6734872844197604,-0.5615317158725519,0.2448114586378252
1747151819.665269,1.001376,0.000244,0.090646,-0.17500000000000002,0.3325,0.665,-0.6734872844197604,-0.5615317158725519,0.2448114586378252
1747151819.6701465,1.000278,-0.00122,0.092842,-0.15750000000000003,0.3325,0.6125,-0.6734872844197604,-0.5615317158725519,0.2448114586378252
1747151819.6750686,0.9995459999999999,-0.0013419999999999999,0.09089,-0.17500000000000002,0.31500000000000006,0.5775,-0.6734872844197604,-0.5615317158725519,0.2448114586378252
1747151819.6799355,1.001132,-0.003172,0.091988,-0.14,0.2625,0.5075000000000001,-0.6734872844197604,-0.5615317158725519,0.2448114586378252
1747151819.6857848,1.001864,-0.000976,0.092964,-0.14,0.29750000000000004,0.56,-0.6734872844197604,-0.5615317158725519,0.2448114586378252
1747151819.6896698,1.001498,-0.001464,0.09333,-0.15750000000000003,0.31500000000000006,0.5425000000000001,-0.6734872844197604,-0.5615317158725519,0.2448114586378252
1747151819.6945357,1.000034,-0.002562,0.092842,-0.14,0.3325,0.525,-0.6734872844197604,-0.5615317158725519,0.2448114586378252
1747151819.6994143,1.001986,-0.000488,0.092598,-0.17500000000000002,0.35000000000000003,0.5775,-0.6734872844197604,-0.5615317158725519,0.2448114586378252
1747151819.704283,1.000888,0.000244,0.091866,-0.17500000000000002,0.31500000000000006,0.525,-0.6729026600409237,-0.5603624671148787,0.2413037123648056
1747151819.7091558,1.001132,-0.0023179999999999997,0.092598,-0.035,0.22750000000000004,0.45500000000000007,-0.6729026600409237,-0.5603624671148787,0.2413037123648056
1747151819.7140243,1.001864,-0.0008539999999999999,0.091012,-0.07,0.3325,0.5425000000000001,-0.6729026600409237,-0.5603624671148787,0.2413037123648056
1747151819.7189014,1.002108,-0.000488,0.093696,-0.08750000000000001,0.3325,0.5775,-0.6729026600409237,-0.5603624671148787,0.2413037123648056
1747151819.723792,0.999302,-0.0037819999999999998,0.091378,-0.0175,0.31500000000000006,0.5950000000000001,-0.6729026600409237,-0.5603624671148787,0.2413037123648056
1747151819.728649,0.99979,-0.002074,0.091622,0.0175,0.28,0.56,-0.6729026600409237,-0.5603624671148787,0.2413037123648056
1747151819.7335315,1.00101,-0.0030499999999999998,0.09333,-0.17500000000000002,0.21000000000000002,0.525,-0.6729026600409237,-0.5603624671148787,0.2413037123648056
1747151819.739265,1.001254,-0.00122,0.09235399999999999,-0.08750000000000001,0.31500000000000006,0.525,-0.6729026600409237,-0.5603624671148787,0.2413037123648056
1747151819.7432742,1.001254,-0.00122,0.09235399999999999,-0.0175,0.24500000000000002,0.49000000000000005,-0.6729026600409237,-0.5603624671148787,0.2413037123648056
1747151819.7481575,0.9983259999999999,-0.003294,0.092842,-0.14,0.31500000000000006,0.5075000000000001,-0.6729026600409237,-0.5603624671148787,0.2413037123648056
1747151819.7530332,1.0298019999999999,-0.003294,0.090402,-0.21000000000000002,0.2625,0.45500000000000007,-0.6705641625255773,-0.5641625255773166,0.24115755627009647
1747151819.7579243,0.999668,-0.000732,0.092598,-0.0175,0.2625,0.5775,-0.6705641625255773,-0.5641625255773166,0.24115755627009647
1747151819.7627947,0.998692,-0.000976,0.09272,-0.12250000000000001,0.28,0.5425000000000001,-0.6705641625255773,-0.5641625255773166,0.24115755627009647
1747151819.7676919,0.9995459999999999,-0.00244,0.092476,-0.17500000000000002,0.31500000000000006,0.56,-0.6705641625255773,-0.5641625255773166,0.24115755627009647
1747151819.772551,1.000644,-0.001952,0.093208,-0.1925,0.31500000000000006,0.5775,-0.6705641625255773,-0.5641625255773166,0.24115755627009647
1747151819.7774444,1.000766,-0.001586,0.091622,-0.17500000000000002,0.35000000000000003,0.525,-0.6705641625255773,-0.5641625255773166,0.24115755627009647
1747151819.7823148,0.998814,-0.002562,0.092598,-0.12250000000000001,0.36750000000000005,0.56,-0.6705641625255773,-0.5641625255773166,0.24115755627009647
1747151819.7871947,1.001498,-0.0013419999999999999,0.093818,-0.14,0.28,0.5425000000000001,-0.6705641625255773,-0.5641625255773166,0.24115755627009647
1747151819.7929368,1.001742,-0.0034159999999999998,0.091622,-0.10500000000000001,0.28,0.56,-0.6705641625255773,-0.5641625255773166,0.24115755627009647
1747151819.7969265,1.000034,-0.002806,0.09113399999999999,-0.12250000000000001,0.29750000000000004,0.56,-0.6772873428821982,-0.5624086524408067,0.24203449283835135
1747151819.8017983,1.000156,-0.001952,0.09089,-0.1925,0.31500000000000006,0.47250000000000003,-0.6772873428821982,-0.5624086524408067,0.24203449283835135
1747151819.806676,0.999668,-0.00061,0.093086,-0.22750000000000004,0.36750000000000005,0.56,-0.6772873428821982,-0.5624086524408067,0.24203449283835135
1747151819.8115478,1.00101,-0.00122,0.092964,-0.21000000000000002,0.3325,0.56,-0.6772873428821982,-0.5624086524408067,0.24203449283835135
1747151819.8164248,0.99857,-0.000976,0.09235399999999999,-0.22750000000000004,0.2625,0.5075000000000001,-0.6772873428821982,-0.5624086524408067,0.24203449283835135
1747151819.821297,1.000644,-0.001952,0.092232,-0.14,0.2625,0.5075000000000001,-0.6772873428821982,-0.5624086524408067,0.24203449283835135
1747151819.8261738,1.00101,-0.000122,0.091256,0.0,0.21000000000000002,0.5950000000000001,-0.6772873428821982,-0.5624086524408067,0.24203449283835135
1747151819.8310401,1.000644,-0.003172,0.09235399999999999,-0.035,0.29750000000000004,0.6475000000000001,-0.6772873428821982,-0.5624086524408067,0.24203449283835135
1747151819.8359106,1.000522,-0.002928,0.092598,-0.052500000000000005,0.2625,0.56,-0.6772873428821982,-0.5624086524408067,0.24203449283835135
1747151819.84079,1.000888,-0.002806,0.091622,-0.0175,0.1925,0.56,-0.6772873428821982,-0.5624086524408067,0.24203449283835135
1747151819.8464084,1.003328,-0.0023179999999999997,0.09211,-0.035,0.22750000000000004,0.56,-0.6737795966091786,-0.5665010230926629,0.23940368313358668
1747151819.8505294,1.000766,-0.0013419999999999999,0.09211,-0.07,0.24500000000000002,0.665,-0.6737795966091786,-0.5665010230926629,0.23940368313358668
1747151819.8554358,1.000034,-0.001586,0.091012,-0.07,0.29750000000000004,0.6125,-0.6737795966091786,-0.5665010230926629,0.23940368313358668
1747151819.8603115,1.001742,-0.002806,0.090646,-0.12250000000000001,0.2625,0.5075000000000001,-0.6737795966091786,-0.5665010230926629,0.23940368313358668
1747151819.865165,1.000278,-0.00183,0.092598,-0.07,0.28,0.525,-0.6737795966091786,-0.5665010230926629,0.23940368313358668
1747151819.870038,1.001742,-0.001098,0.094306,-0.07,0.2625,0.5425000000000001,-0.6737795966091786,-0.5665010230926629,0.23940368313358668
1747151819.8749256,1.000034,-0.001098,0.09235399999999999,-0.052500000000000005,0.24500000000000002,0.5075000000000001,-0.6737795966091786,-0.5665010230926629,0.23940368313358668
1747151819.879799,1.000156,-0.0023179999999999997,0.091988,-0.035,0.22750000000000004,0.56,-0.6737795966091786,-0.5665010230926629,0.23940368313358668
1747151819.8846664,1.00223,-0.001098,0.091622,-0.08750000000000001,0.28,0.56,-0.6737795966091786,-0.5665010230926629,0.23940368313358668
1747151819.8895385,1.000888,-0.002806,0.090768,-0.15750000000000003,0.31500000000000006,0.5950000000000001,-0.6737795966091786,-0.5665010230926629,0.23940368313358668
1747151819.894422,1.000278,-0.0026839999999999998,0.091378,-0.10500000000000001,0.2625,0.49000000000000005,-0.6752411575562701,-0.5600701549254604,0.23984215141771412
1747151819.9000142,1.000034,-0.000732,0.091988,-0.17500000000000002,0.35000000000000003,0.525,-0.6752411575562701,-0.5600701549254604,0.23984215141771412
1747151819.9041643,0.999058,-0.003294,0.092842,-0.22750000000000004,0.4025,0.49000000000000005,-0.6752411575562701,-0.5600701549254604,0.23984215141771412
1747151819.9090428,1.001498,-0.001586,0.092232,-0.17500000000000002,0.3325,0.525,-0.6752411575562701,-0.5600701549254604,0.23984215141771412
1747151819.9139218,1.001986,-0.001464,0.09272,-0.052500000000000005,0.29750000000000004,0.5075000000000001,-0.6752411575562701,-0.5600701549254604,0.23984215141771412
1747151819.9188027,0.9995459999999999,-0.002074,0.092476,-0.035,0.22750000000000004,0.5425000000000001,-0.6752411575562701,-0.5600701549254604,0.23984215141771412
1747151819.9236808,0.999668,-0.000488,0.092476,-0.08750000000000001,0.35000000000000003,0.56,-0.6752411575562701,-0.5600701549254604,0.23984215141771412
1747151819.9285522,0.999912,-0.001464,0.092232,-0.17500000000000002,0.31500000000000006,0.56,-0.6752411575562701,-0.5600701549254604,0.23984215141771412
1747151819.9334254,1.00101,-0.002196,0.09272,-0.17500000000000002,0.4025,0.56,-0.6752411575562701,-0.5600701549254604,0.23984215141771412
1747151819.9383018,1.000644,-0.0008539999999999999,0.09235399999999999,-0.21000000000000002,0.35000000000000003,0.6300000000000001,-0.6658871674948845,-0.5609470914937152,0.24495761473253436
1747151819.9431748,0.9995459999999999,-0.002806,0.0915,-0.14,0.2625,0.49000000000000005,-0.6658871674948845,-0.5609470914937152,0.24495761473253436
1747151819.9480443,1.000522,-0.0023179999999999997,0.090768,-0.0175,0.31500000000000006,0.5425000000000001,-0.6658871674948845,-0.5609470914937152,0.24495761473253436
1747151819.9536295,1.001254,-0.0008539999999999999,0.092232,-0.035,0.29750000000000004,0.5775,-0.6658871674948845,-0.5609470914937152,0.24495761473253436
1747151819.9577878,0.9995459999999999,-0.001586,0.092476,-0.035,0.35000000000000003,0.5425000000000001,-0.6658871674948845,-0.5609470914937152,0.24495761473253436
1747151819.9626677,1.000766,-0.001098,0.091866,0.0175,0.28,0.5425000000000001,-0.6658871674948845,-0.5609470914937152,0.24495761473253436
1747151819.9675386,0.9995459999999999,-0.0026839999999999998,0.090646,-0.10500000000000001,0.2625,0.5425000000000001,-0.6658871674948845,-0.5609470914937152,0.24495761473253436
1747151819.972411,1.001254,-0.00122,0.09235399999999999,-0.14,0.2625,0.525,-0.6658871674948845,-0.5609470914937152,0.24495761473253436
1747151819.9772918,1.001132,-0.001952,0.091866,-0.08750000000000001,0.3325,0.5425000000000001,-0.6658871674948845,-0.5609470914937152,0.24495761473253436
1747151819.982169,0.99979,-0.003172,0.089182,-0.21000000000000002,0.35000000000000003,0.5075000000000001,-0.6658871674948845,-0.5609470914937152,0.24495761473253436
1747151819.987045,1.000888,-0.0023179999999999997,0.0915,-0.1925,0.31500000000000006,0.5075000000000001,-0.6729026600409237,-0.5627009646302251,0.2415960245542239
1747151819.991917,1.000888,-0.0017079999999999999,0.091378,-0.10500000000000001,0.29750000000000004,0.5775,-0.6729026600409237,-0.5627009646302251,0.2415960245542239
1747151819.9967942,1.000156,-0.001098,0.091866,-0.12250000000000001,0.31500000000000006,0.5950000000000001,-0.6729026600409237,-0.5627009646302251,0.2415960245542239
1747151820.00167,1.000278,-0.0008539999999999999,0.092964,-0.07,0.31500000000000006,0.5425000000000001,-0.6729026600409237,-0.5627009646302251,0.2415960245542239
1747151820.0072715,0.999424,-0.0023179999999999997,0.09174399999999999,-0.035,0.21000000000000002,0.525,-0.6729026600409237,-0.5627009646302251,0.2415960245542239
1747151820.0114222,0.999912,-0.001464,0.091622,0.0,0.12250000000000001,0.47250000000000003,-0.6729026600409237,-0.5627009646302251,0.2415960245542239
1747151820.0162888,0.998204,0.0,0.093208,0.0,0.22750000000000004,0.6125,-0.6729026600409237,-0.5627009646302251,0.2415960245542239
1747151820.0211914,1.001254,-0.0017079999999999999,0.092842,-0.17500000000000002,0.29750000000000004,0.5950000000000001,-0.6729026600409237,-0.5627009646302251,0.2415960245542239
1747151820.0260432,0.999058,-0.0026839999999999998,0.089182,-0.15750000000000003,0.31500000000000006,0.5950000000000001,-0.6729026600409237,-0.5627009646302251,0.2415960245542239
1747151820.0309236,1.000888,0.000488,0.095404,-0.052500000000000005,0.22750000000000004,0.5425000000000001,-0.6726103478515054,-0.5603624671148787,0.23867290266004093
1747151820.0358124,1.000156,-0.001586,0.09272,-0.0175,0.22750000000000004,0.525,-0.6726103478515054,-0.5603624671148787,0.23867290266004093
1747151820.0406785,1.000522,-0.002806,0.091622,-0.035,0.22750000000000004,0.56,-0.6726103478515054,-0.5603624671148787,0.23867290266004093
1747151820.0455484,1.001742,-0.0034159999999999998,0.09113399999999999,-0.17500000000000002,0.29750000000000004,0.56,-0.6726103478515054,-0.5603624671148787,0.23867290266004093
1747151820.050417,1.00101,-0.000732,0.093696,-0.14,0.3325,0.5775,-0.6726103478515054,-0.5603624671148787,0.23867290266004093
1747151820.0552876,1.000888,0.0,0.093452,-0.17500000000000002,0.29750000000000004,0.5950000000000001,-0.6726103478515054,-0.5603624671148787,0.23867290266004093
1747151820.0608969,0.999424,-0.00244,0.090646,-0.14,0.29750000000000004,0.525,-0.6726103478515054,-0.5603624671148787,0.23867290266004093
1747151820.0650465,1.000766,-0.003294,0.091256,-0.14,0.29750000000000004,0.525,-0.6726103478515054,-0.5603624671148787,0.23867290266004093
1747151820.0699174,1.002108,-0.003904,0.092232,-0.24500000000000002,0.35000000000000003,0.5775,-0.6726103478515054,-0.5603624671148787,0.23867290266004093
1747151820.0747912,0.99979,-0.00122,0.089914,-0.15750000000000003,0.35000000000000003,0.5425000000000001,-0.6726103478515054,-0.5603624671148787,0.23867290266004093
1747151820.0796685,1.0004,-0.000976,0.092964,-0.12250000000000001,0.24500000000000002,0.5075000000000001,-0.6729026600409237,-0.5624086524408067,0.2415960245542239
1747151820.0845451,1.000644,-0.001952,0.0915,-0.0175,0.1925,0.5775,-0.6729026600409237,-0.5624086524408067,0.2415960245542239
1747151820.0894172,1.000888,-0.0030499999999999998,0.09211,-0.07,0.1925,0.5775,-0.6729026600409237,-0.5624086524408067,0.2415960245542239
1747151820.0942843,0.9995459999999999,-0.0023179999999999997,0.0915,-0.07,0.2625,0.5775,-0.6729026600409237,-0.5624086524408067,0.2415960245542239
1747151820.0991576,1.001498,-0.00122,0.093086,-0.08750000000000001,0.2625,0.5425000000000001,-0.6729026600409237,-0.5624086524408067,0.2415960245542239
1747151820.1040287,0.9983259999999999,-0.001586,0.090158,-0.10500000000000001,0.22750000000000004,0.5775,-0.6729026600409237,-0.5624086524408067,0.2415960245542239
1747151820.108902,1.001986,-0.001464,0.091622,-0.12250000000000001,0.2625,0.525,-0.6729026600409237,-0.5624086524408067,0.2415960245542239
1747151820.1144853,1.001864,-0.0030499999999999998,0.091988,-0.17500000000000002,0.31500000000000006,0.5775,-0.6729026600409237,-0.5624086524408067,0.2415960245542239
1747151820.1186504,1.0004,-0.0026839999999999998,0.092964,-0.12250000000000001,0.31500000000000006,0.525,-0.6729026600409237,-0.5624086524408067,0.2415960245542239
1747151820.12353,1.000888,-0.00122,0.091256,-0.08750000000000001,0.31500000000000006,0.5075000000000001,-0.6729026600409237,-0.5624086524408067,0.2415960245542239
1747151820.128394,0.9989359999999999,-0.0023179999999999997,0.090036,-0.14,0.35000000000000003,0.5075000000000001,-0.6755334697456884,-0.5533469745688395,0.2347266881028939
1747151820.1332746,0.998814,-0.002196,0.09235399999999999,-0.07,0.29750000000000004,0.5775,-0.6755334697456884,-0.5533469745688395,0.2347266881028939
1747151820.1381624,1.001376,-0.000244,0.09235399999999999,-0.10500000000000001,0.22750000000000004,0.5075000000000001,-0.6755334697456884,-0.5533469745688395,0.2347266881028939
1747151820.1430213,1.000034,-0.001952,0.089792,-0.08750000000000001,0.2625,0.6125,-0.6755334697456884,-0.5533469745688395,0.2347266881028939
1747151820.1478922,0.9995459999999999,-0.003172,0.09089,-0.08750000000000001,0.24500000000000002,0.5425000000000001,-0.6755334697456884,-0.5533469745688395,0.2347266881028939
1747151820.1527705,1.0004,0.001098,0.093696,-0.052500000000000005,0.2625,0.56,-0.6755334697456884,-0.5533469745688395,0.2347266881028939
1747151820.1576407,1.000766,-0.00122,0.091988,-0.14,0.24500000000000002,0.49000000000000005,-0.6755334697456884,-0.5533469745688395,0.2347266881028939
1747151820.1625128,1.0004,-0.003172,0.09272,-0.17500000000000002,0.24500000000000002,0.525,-0.6755334697456884,-0.5533469745688395,0.2347266881028939
1747151820.1680973,1.001254,-0.00244,0.091256,-0.1925,0.3325,0.5775,-0.6755334697456884,-0.5533469745688395,0.2347266881028939
1747151820.1722548,1.001864,-0.002074,0.091622,-0.12250000000000001,0.3325,0.5775,-0.6696872259573224,-0.5609470914937152,0.23838059047062263
1747151820.177124,1.002352,-0.0034159999999999998,0.091378,0.035,0.15750000000000003,0.49000000000000005,-0.6696872259573224,-0.5609470914937152,0.23838059047062263
1747151820.1819963,1.003084,-0.002196,0.093452,-0.15750000000000003,0.31500000000000006,0.5950000000000001,-0.6696872259573224,-0.5609470914937152,0.23838059047062263
1747151820.1868622,0.99979,-0.004514,0.092842,-0.10500000000000001,0.35000000000000003,0.5950000000000001,-0.6696872259573224,-0.5609470914937152,0.23838059047062263
1747151820.1917372,1.000766,-0.001098,0.0915,-0.21000000000000002,0.3325,0.5775,-0.6696872259573224,-0.5609470914937152,0.23838059047062263
1747151820.1966054,1.000766,-0.001464,0.09272,-0.2625,0.3325,0.5425000000000001,-0.6696872259573224,-0.5609470914937152,0.23838059047062263
1747151820.2015216,1.001986,-0.00061,0.091866,-0.22750000000000004,0.4025,0.5775,-0.6696872259573224,-0.5609470914937152,0.23838059047062263
1747151820.2063758,0.998814,-0.00122,0.089914,-0.22750000000000004,0.42000000000000004,0.5425000000000001,-0.6696872259573224,-0.5609470914937152,0.23838059047062263
1747151820.2112436,0.998814,-0.001464,0.092232,-0.14,0.36750000000000005,0.5425000000000001,-0.6696872259573224,-0.5609470914937152,0.23838059047062263
1747151820.2161353,1.000644,-0.000122,0.090646,-0.10500000000000001,0.31500000000000006,0.56,-0.6696872259573224,-0.5609470914937152,0.23838059047062263
1747151820.2217185,1.000644,-0.00122,0.09089,-0.17500000000000002,0.24500000000000002,0.5075000000000001,-0.6655948553054662,-0.5571470330312774,0.24627301958491668
1747151820.2258632,1.001376,-0.001586,0.093086,-0.17500000000000002,0.29750000000000004,0.6125,-0.6655948553054662,-0.5571470330312774,0.24627301958491668
1747151820.2307312,1.000766,-0.00244,0.09174399999999999,-0.1925,0.29750000000000004,0.5775,-0.6655948553054662,-0.5571470330312774,0.24627301958491668
1747151820.2356076,1.000278,-0.0017079999999999999,0.090524,-0.22750000000000004,0.3325,0.5775,-0.6655948553054662,-0.5571470330312774,0.24627301958491668
1747151820.2404897,1.000156,-0.000488,0.090402,-0.21000000000000002,0.3325,0.5425000000000001,-0.6655948553054662,-0.5571470330312774,0.24627301958491668
1747151820.2453578,1.00345,-0.000732,0.092842,-0.14,0.28,0.5775,-0.6655948553054662,-0.5571470330312774,0.24627301958491668
1747151820.250227,1.0004,-0.002074,0.090158,-0.052500000000000005,0.24500000000000002,0.5425000000000001,-0.6655948553054662,-0.5571470330312774,0.24627301958491668
1747151820.2551005,1.001498,0.0,0.091012,-0.0175,0.28,0.5950000000000001,-0.6655948553054662,-0.5571470330312774,0.24627301958491668
1747151820.259973,1.002474,-0.002196,0.091866,-0.0175,0.22750000000000004,0.5425000000000001,-0.6655948553054662,-0.5571470330312774,0.24627301958491668
1747151820.264844,0.999912,-0.002806,0.090768,0.0175,0.24500000000000002,0.56,-0.6729026600409237,-0.555685472084186,0.24524992692195263
1747151820.2697213,1.001254,-0.00122,0.09211,-0.0175,0.1925,0.5075000000000001,-0.6729026600409237,-0.555685472084186,0.24524992692195263
1747151820.2753053,0.9995459999999999,-0.000732,0.091012,0.0175,0.21000000000000002,0.56,-0.6729026600409237,-0.555685472084186,0.24524992692195263
1747151820.2794662,1.000034,-0.000244,0.091622,-0.0175,0.1925,0.56,-0.6729026600409237,-0.555685472084186,0.24524992692195263
1747151820.2843368,1.000644,-0.00061,0.092598,-0.035,0.22750000000000004,0.56,-0.6729026600409237,-0.555685472084186,0.24524992692195263
1747151820.289209,1.001132,-0.000366,0.091622,-0.035,0.31500000000000006,0.5950000000000001,-0.6729026600409237,-0.555685472084186,0.24524992692195263
1747151820.2940881,1.001254,-0.001464,0.09211,-0.15750000000000003,0.31500000000000006,0.56,-0.6729026600409237,-0.555685472084186,0.24524992692195263
1747151820.2989824,1.002474,-0.000488,0.09089,-0.17500000000000002,0.385,0.56,-0.6729026600409237,-0.555685472084186,0.24524992692195263
1747151820.3038445,1.000644,-0.000122,0.09272,-0.035,0.31500000000000006,0.5425000000000001,-0.6729026600409237,-0.555685472084186,0.24524992692195263
1747151820.308709,0.999058,-0.000732,0.092232,-0.08750000000000001,0.31500000000000006,0.5425000000000001,-0.6729026600409237,-0.555685472084186,0.24524992692195263
1747151820.3135827,1.000766,-0.002806,0.09028,-0.035,0.21000000000000002,0.5075000000000001,-0.6723180356620871,-0.5615317158725519,0.2415960245542239
1747151820.3184502,0.999912,-0.002074,0.090768,0.0,0.12250000000000001,0.56,-0.6723180356620871,-0.5615317158725519,0.2415960245542239
1747151820.3233247,1.000766,-0.0017079999999999999,0.09211,-0.08750000000000001,0.4025,0.6300000000000001,-0.6723180356620871,-0.5615317158725519,0.2415960245542239
1747151820.3289208,0.999424,-0.002562,0.09089,-0.052500000000000005,0.28,0.5950000000000001,-0.6723180356620871,-0.5615317158725519,0.2415960245542239
1747151820.3330784,1.00223,-0.000244,0.09235399999999999,-0.08750000000000001,0.24500000000000002,0.5075000000000001,-0.6723180356620871,-0.5615317158725519,0.2415960245542239
1747151820.3379483,1.001376,-0.0008539999999999999,0.093208,-0.07,0.22750000000000004,0.5425000000000001,-0.6723180356620871,-0.5615317158725519,0.2415960245542239
1747151820.3428216,1.0004,-0.00183,0.09272,-0.052500000000000005,0.31500000000000006,0.56,-0.6723180356620871,-0.5615317158725519,0.2415960245542239
1747151820.3476923,1.000644,-0.001464,0.09174399999999999,-0.14,0.3325,0.56,-0.6723180356620871,-0.5615317158725519,0.2415960245542239
1747151820.3525608,1.001376,-0.00061,0.091622,-0.15750000000000003,0.3325,0.56,-0.6723180356620871,-0.5615317158725519,0.2415960245542239
1747151820.3574321,1.000034,-0.001464,0.09272,-0.21000000000000002,0.31500000000000006,0.56,-0.6723180356620871,-0.5615317158725519,0.2415960245542239
1747151820.3623033,1.00101,-0.001464,0.09211,-0.2625,0.31500000000000006,0.49000000000000005,-0.6740719087985969,-0.5589009061677872,0.23165741011400176
1747151820.3671727,0.998692,-0.001464,0.090402,-0.22750000000000004,0.3325,0.56,-0.6740719087985969,-0.5589009061677872,0.23165741011400176
1747151820.372055,1.00101,-0.002928,0.09235399999999999,-0.21000000000000002,0.31500000000000006,0.5950000000000001,-0.6740719087985969,-0.5589009061677872,0.23165741011400176
1747151820.3769252,1.000644,-0.0026839999999999998,0.093452,-0.22750000000000004,0.36750000000000005,0.6475000000000001,-0.6740719087985969,-0.5589009061677872,0.23165741011400176
1747151820.3825033,1.003084,-0.0008539999999999999,0.091622,-0.15750000000000003,0.31500000000000006,0.5425000000000001,-0.6740719087985969,-0.5589009061677872,0.23165741011400176
1747151820.3866615,0.998692,-0.002196,0.091622,-0.12250000000000001,0.2625,0.49000000000000005,-0.6740719087985969,-0.5589009061677872,0.23165741011400176
1747151820.3915365,0.99979,-0.000732,0.093574,-0.21000000000000002,0.385,0.5075000000000001,-0.6740719087985969,-0.5589009061677872,0.23165741011400176
1747151820.396404,1.00223,-0.001952,0.092232,-0.10500000000000001,0.31500000000000006,0.525,-0.6740719087985969,-0.5589009061677872,0.23165741011400176
1747151820.4012766,1.0004,-0.003172,0.090768,0.0175,0.2625,0.5425000000000001,-0.6740719087985969,-0.5589009061677872,0.23165741011400176
1747151820.4061499,0.999424,-0.001952,0.08942599999999999,-0.035,0.28,0.525,-0.6612101724641918,-0.5615317158725519,0.23779596609178602
1747151820.4110198,1.001864,-0.000488,0.0915,-0.052500000000000005,0.1925,0.5775,-0.6612101724641918,-0.5615317158725519,0.23779596609178602
1747151820.4158878,1.001742,0.0,0.091988,-0.0175,0.29750000000000004,0.525,-0.6612101724641918,-0.5615317158725519,0.23779596609178602
1747151820.4207618,1.000156,-0.000976,0.093086,0.0175,0.21000000000000002,0.5425000000000001,-0.6612101724641918,-0.5615317158725519,0.23779596609178602
1747151820.4256327,0.998814,-0.001098,0.090768,-0.0175,0.22750000000000004,0.5425000000000001,-0.6612101724641918,-0.5615317158725519,0.23779596609178602
1747151820.4305058,0.9983259999999999,-0.00183,0.093818,0.0,0.1925,0.5775,-0.6612101724641918,-0.5615317158725519,0.23779596609178602
1747151820.4360878,0.999668,-0.002196,0.09113399999999999,0.0,0.21000000000000002,0.56,-0.6612101724641918,-0.5615317158725519,0.23779596609178602
1747151820.4402683,0.99979,-0.00183,0.090524,-0.12250000000000001,0.21000000000000002,0.5425000000000001,-0.6612101724641918,-0.5615317158725519,0.23779596609178602
1747151820.4451296,1.001132,-0.000488,0.091378,-0.12250000000000001,0.2625,0.5075000000000001,-0.6612101724641918,-0.5615317158725519,0.23779596609178602
1747151820.45,1.001254,-0.00061,0.091622,-0.15750000000000003,0.3325,0.56,-0.6612101724641918,-0.5615317158725519,0.23779596609178602
1747151820.4548688,0.9995459999999999,-0.001098,0.093086,-0.21000000000000002,0.3325,0.5075000000000001,-0.6755334697456884,-0.5597778427360421,0.23823443437591346
1747151820.4597378,1.000034,-0.000732,0.091622,-0.21000000000000002,0.35000000000000003,0.5425000000000001,-0.6755334697456884,-0.5597778427360421,0.23823443437591346
1747151820.4646094,1.00223,-0.001098,0.09333,-0.21000000000000002,0.35000000000000003,0.56,-0.6755334697456884,-0.5597778427360421,0.23823443437591346
1747151820.46948,1.001864,-0.001098,0.090524,-0.1925,0.36750000000000005,0.56,-0.6755334697456884,-0.5597778427360421,0.23823443437591346
1747151820.4743488,0.9995459999999999,-0.000366,0.092232,-0.15750000000000003,0.3325,0.525,-0.6755334697456884,-0.5597778427360421,0.23823443437591346
1747151820.4792233,1.000644,-0.00061,0.091012,-0.17500000000000002,0.28,0.5075000000000001,-0.6755334697456884,-0.5597778427360421,0.23823443437591346
1747151820.4840958,0.999912,-0.00244,0.090646,-0.14,0.31500000000000006,0.5425000000000001,-0.6755334697456884,-0.5597778427360421,0.23823443437591346
1747151820.489678,1.000644,-0.0008539999999999999,0.0915,-0.07,0.2625,0.5075000000000001,-0.6755334697456884,-0.5597778427360421,0.23823443437591346
1747151820.493836,0.99857,-0.00244,0.09113399999999999,-0.10500000000000001,0.385,0.6125,-0.6755334697456884,-0.5597778427360421,0.23823443437591346
1747151820.4987056,1.0004,-0.000488,0.092476,-0.1925,0.31500000000000006,0.525,-0.6696872259573224,-0.5591932183572055,0.24028061970184156
1747151820.503586,1.000034,-0.0008539999999999999,0.091256,-0.07,0.22750000000000004,0.525,-0.6696872259573224,-0.5591932183572055,0.24028061970184156
1747151820.5084627,0.999912,-0.00183,0.090036,-0.08750000000000001,0.35000000000000003,0.5775,-0.6696872259573224,-0.5591932183572055,0.24028061970184156
1747151820.5133224,1.002108,-0.00122,0.092476,-0.07,0.28,0.49000000000000005,-0.6696872259573224,-0.5591932183572055,0.24028061970184156
1747151820.518195,1.002474,-0.001586,0.09235399999999999,-0.0175,0.21000000000000002,0.5425000000000001,-0.6696872259573224,-0.5591932183572055,0.24028061970184156
1747151820.5230656,1.00101,-0.002562,0.09235399999999999,-0.052500000000000005,0.28,0.5775,-0.6696872259573224,-0.5591932183572055,0.24028061970184156
1747151820.5279372,1.00162,-0.00366,0.091256,-0.052500000000000005,0.2625,0.5950000000000001,-0.6696872259573224,-0.5591932183572055,0.24028061970184156
1747151820.5328038,1.000766,-0.002806,0.09333,-0.035,0.28,0.56,-0.6696872259573224,-0.5591932183572055,0.24028061970184156
1747151820.5376806,1.000522,-0.0008539999999999999,0.09272,0.0,0.22750000000000004,0.525,-0.6696872259573224,-0.5591932183572055,0.24028061970184156
1747151820.5432773,0.999302,-0.0026839999999999998,0.09333,-0.0175,0.24500000000000002,0.525,-0.6696872259573224,-0.5591932183572055,0.24028061970184156
1747151820.5474262,0.999302,-0.0026839999999999998,0.090036,0.0,0.2625,0.5075000000000001,-0.6729026600409237,-0.5559777842736042,0.24320374159602456
1747151820.5522983,0.999058,-0.000244,0.091988,-0.07,0.21000000000000002,0.47250000000000003,-0.6729026600409237,-0.5559777842736042,0.24320374159602456
1747151820.5571635,0.999912,-0.0037819999999999998,0.091988,-0.14,0.29750000000000004,0.5425000000000001,-0.6729026600409237,-0.5559777842736042,0.24320374159602456
1747151820.5620365,1.000278,-0.00122,0.091256,-0.22750000000000004,0.4025,0.5950000000000001,-0.6729026600409237,-0.5559777842736042,0.24320374159602456
1747151820.5669131,1.001254,-0.000366,0.093208,-0.31500000000000006,0.28,0.56,-0.6729026600409237,-0.5559777842736042,0.24320374159602456
1747151820.5717926,1.002718,-0.002562,0.090158,-0.28,0.3325,0.525,-0.6729026600409237,-0.5559777842736042,0.24320374159602456
1747151820.5766544,1.001376,-0.0017079999999999999,0.0915,-0.22750000000000004,0.3325,0.525,-0.6729026600409237,-0.5559777842736042,0.24320374159602456
1747151820.5815287,1.000644,0.0,0.092964,-0.22750000000000004,0.29750000000000004,0.56,-0.6729026600409237,-0.5559777842736042,0.24320374159602456
1747151820.5864027,1.002474,-0.000732,0.092842,-0.21000000000000002,0.24500000000000002,0.5950000000000001,-0.6729026600409237,-0.5559777842736042,0.24320374159602456
1747151820.591288,1.000888,-0.0008539999999999999,0.093208,-0.15750000000000003,0.29750000000000004,0.56,-0.6729026600409237,-0.5559777842736042,0.24320374159602456
1747151820.596883,1.00162,-0.002196,0.091622,-0.0175,0.21000000000000002,0.5075000000000001,-0.6726103478515054,-0.5627009646302251,0.24261911721718796
1747151820.601034,1.000766,-0.0017079999999999999,0.09028,0.0175,0.31500000000000006,0.5950000000000001,-0.6726103478515054,-0.5627009646302251,0.24261911721718796
1747151820.605921,0.999424,-0.00183,0.090402,-0.035,0.28,0.5075000000000001,-0.6726103478515054,-0.5627009646302251,0.24261911721718796
1747151820.610818,1.000278,-0.00183,0.09174399999999999,-0.22750000000000004,0.35000000000000003,0.56,-0.6726103478515054,-0.5627009646302251,0.24261911721718796
1747151820.6156762,0.999424,-0.00061,0.093452,-0.22750000000000004,0.29750000000000004,0.5425000000000001,-0.6726103478515054,-0.5627009646302251,0.24261911721718796
1747151820.620544,1.000156,-0.003172,0.091866,-0.10500000000000001,0.28,0.5950000000000001,-0.6726103478515054,-0.5627009646302251,0.24261911721718796
1747151820.6254146,1.000278,-0.0017079999999999999,0.092476,0.0175,0.21000000000000002,0.5950000000000001,-0.6726103478515054,-0.5627009646302251,0.24261911721718796
1747151820.6303113,1.001986,-0.000976,0.0915,-0.052500000000000005,0.21000000000000002,0.5950000000000001,-0.6726103478515054,-0.5627009646302251,0.24261911721718796
1747151820.6351602,1.0004,-0.002074,0.091622,-0.08750000000000001,0.22750000000000004,0.56,-0.6726103478515054,-0.5627009646302251,0.24261911721718796
1747151820.6400461,1.001254,-0.001098,0.092476,-0.1925,0.2625,0.56,-0.6778719672610348,-0.5612394036831336,0.2471499561531716
1747151820.6449037,1.000888,-0.000976,0.091622,-0.08750000000000001,0.31500000000000006,0.56,-0.6778719672610348,-0.5612394036831336,0.2471499561531716
1747151820.6505034,0.999912,-0.001586,0.091622,-0.0175,0.24500000000000002,0.525,-0.6778719672610348,-0.5612394036831336,0.2471499561531716
1747151820.65465,0.9995459999999999,-0.001586,0.091622,0.0175,0.17500000000000002,0.525,-0.6778719672610348,-0.5612394036831336,0.2471499561531716
1747151820.6595225,0.998448,-0.0017079999999999999,0.091866,-0.10500000000000001,0.29750000000000004,0.56,-0.6778719672610348,-0.5612394036831336,0.2471499561531716
1747151820.6643903,1.000644,-0.001952,0.092476,-0.1925,0.35000000000000003,0.5950000000000001,-0.6778719672610348,-0.5612394036831336,0.2471499561531716
1747151820.66926,1.000156,-0.0013419999999999999,0.091622,-0.24500000000000002,0.36750000000000005,0.5075000000000001,-0.6778719672610348,-0.5612394036831336,0.2471499561531716
1747151820.6741378,1.000888,-0.0023179999999999997,0.091256,-0.2625,0.385,0.5075000000000001,-0.6778719672610348,-0.5612394036831336,0.2471499561531716
1747151820.6790097,1.003328,-0.001586,0.092964,-0.21000000000000002,0.35000000000000003,0.56,-0.6778719672610348,-0.5612394036831336,0.2471499561531716
1747151820.6838787,1.000888,-0.002074,0.0915,-0.21000000000000002,0.385,0.56,-0.6778719672610348,-0.5612394036831336,0.2471499561531716
1747151820.6887467,1.000644,-0.0008539999999999999,0.092476,-0.17500000000000002,0.31500000000000006,0.5075000000000001,-0.6655948553054662,-0.5627009646302251,0.2459807073954984
1747151820.6936219,0.999424,-0.001464,0.091012,-0.21000000000000002,0.36750000000000005,0.56,-0.6655948553054662,-0.5627009646302251,0.2459807073954984
1747151820.6985023,1.001498,-0.000488,0.09333,-0.15750000000000003,0.35000000000000003,0.56,-0.6655948553054662,-0.5627009646302251,0.2459807073954984
1747151820.7040894,1.001498,-0.0023179999999999997,0.091012,-0.035,0.22750000000000004,0.56,-0.6655948553054662,-0.5627009646302251,0.2459807073954984
1747151820.7082465,1.000522,-0.004026,0.089304,-0.035,0.24500000000000002,0.5425000000000001,-0.6655948553054662,-0.5627009646302251,0.2459807073954984
1747151820.713138,1.0004,-0.0023179999999999997,0.092598,-0.052500000000000005,0.21000000000000002,0.525,-0.6655948553054662,-0.5627009646302251,0.2459807073954984
1747151820.7179916,1.000888,-0.002074,0.092598,0.0,0.2625,0.56,-0.6655948553054662,-0.5627009646302251,0.2459807073954984
1747151820.7229245,1.002596,-0.001464,0.091378,-0.14,0.29750000000000004,0.56,-0.6655948553054662,-0.5627009646302251,0.2459807073954984
1747151820.72802,0.9995459999999999,-0.001464,0.09028,-0.07,0.21000000000000002,0.5425000000000001,-0.6655948553054662,-0.5627009646302251,0.2459807073954984
1747151820.7328172,1.001498,-0.0017079999999999999,0.092964,-0.12250000000000001,0.21000000000000002,0.56,-0.6723180356620871,-0.56357790119848,0.2468576439637533
1747151820.7376869,1.001498,-0.001464,0.093208,-0.052500000000000005,0.22750000000000004,0.5075000000000001,-0.6723180356620871,-0.56357790119848,0.2468576439637533
1747151820.7425554,0.999058,-0.001586,0.090402,-0.10500000000000001,0.29750000000000004,0.5950000000000001,-0.6723180356620871,-0.56357790119848,0.2468576439637533
1747151820.7474475,1.000888,-0.00122,0.09333,-0.17500000000000002,0.42000000000000004,0.56,-0.6723180356620871,-0.56357790119848,0.2468576439637533
1747151820.7523181,1.000156,-0.001952,0.09406199999999999,-0.17500000000000002,0.31500000000000006,0.56,-0.6723180356620871,-0.56357790119848,0.2468576439637533
1747151820.7579458,1.00162,-0.0026839999999999998,0.09174399999999999,-0.10500000000000001,0.29750000000000004,0.525,-0.6723180356620871,-0.56357790119848,0.2468576439637533
1747151820.7620482,1.001986,-0.00122,0.09174399999999999,-0.1925,0.35000000000000003,0.525,-0.6723180356620871,-0.56357790119848,0.2468576439637533
1747151820.7669196,1.000888,-0.001098,0.091988,-0.035,0.1925,0.45500000000000007,-0.6723180356620871,-0.56357790119848,0.2468576439637533
1747151820.7717957,0.999668,-0.001952,0.09272,0.0,0.2625,0.6125,-0.6723180356620871,-0.56357790119848,0.2468576439637533
1747151820.7766614,1.002474,-0.001952,0.093208,-0.0175,0.21000000000000002,0.56,-0.6723180356620871,-0.56357790119848,0.2468576439637533
1747151820.781531,1.000644,-0.003904,0.090036,0.0,0.10500000000000001,0.43750000000000006,-0.676118094124525,-0.56357790119848,0.24291142940660626
1747151820.7864041,1.002962,0.0,0.092232,-0.035,0.31500000000000006,0.6125,-0.676118094124525,-0.56357790119848,0.24291142940660626
1747151820.7912781,0.9995459999999999,-0.0026839999999999998,0.09113399999999999,-0.035,0.29750000000000004,0.56,-0.676118094124525,-0.56357790119848,0.24291142940660626
1747151820.7961504,1.00101,-0.0034159999999999998,0.092842,-0.08750000000000001,0.24500000000000002,0.49000000000000005,-0.676118094124525,-0.56357790119848,0.24291142940660626
1747151820.8010278,1.000766,-0.0013419999999999999,0.09235399999999999,-0.15750000000000003,0.28,0.5425000000000001,-0.676118094124525,-0.56357790119848,0.24291142940660626
1747151820.8059244,1.00223,0.0,0.093086,-0.21000000000000002,0.3325,0.5425000000000001,-0.676118094124525,-0.56357790119848,0.24291142940660626
1747151820.811691,0.999668,-0.0008539999999999999,0.092232,-0.17500000000000002,0.31500000000000006,0.5425000000000001,-0.676118094124525,-0.56357790119848,0.24291142940660626
1747151820.8156452,1.002474,-0.000976,0.09211,-0.10500000000000001,0.31500000000000006,0.5775,-0.676118094124525,-0.56357790119848,0.24291142940660626
1747151820.8205104,0.999302,-0.0026839999999999998,0.091256,-0.2625,0.3325,0.5950000000000001,-0.676118094124525,-0.56357790119848,0.24291142940660626
1747151820.8253834,1.001742,-0.00183,0.093208,-0.17500000000000002,0.31500000000000006,0.5425000000000001,-0.676118094124525,-0.56357790119848,0.24291142940660626
1747151820.830258,1.000278,-0.000244,0.093208,-0.15750000000000003,0.31500000000000006,0.49000000000000005,-0.6632563577901198,-0.5542239111370945,0.24788073662671734
1747151820.8351262,0.99918,-0.0026839999999999998,0.090402,-0.14,0.3325,0.5775,-0.6632563577901198,-0.5542239111370945,0.24788073662671734
1747151820.839998,1.000644,-0.0017079999999999999,0.092598,-0.052500000000000005,0.29750000000000004,0.5425000000000001,-0.6632563577901198,-0.5542239111370945,0.24788073662671734
1747151820.8448637,1.0004,-0.00061,0.092964,-0.12250000000000001,0.2625,0.5425000000000001,-0.6632563577901198,-0.5542239111370945,0.24788073662671734
1747151820.8497343,1.000034,-0.000976,0.091988,-0.035,0.1925,0.5075000000000001,-0.6632563577901198,-0.5542239111370945,0.24788073662671734
1747151820.8546212,1.001132,-0.00122,0.091622,-0.052500000000000005,0.17500000000000002,0.525,-0.6632563577901198,-0.5542239111370945,0.24788073662671734
1747151820.8594954,1.000034,-0.000732,0.09272,-0.052500000000000005,0.22750000000000004,0.525,-0.6632563577901198,-0.5542239111370945,0.24788073662671734
1747151820.8652542,1.00101,-0.00122,0.093208,-0.0175,0.1925,0.5775,-0.6632563577901198,-0.5542239111370945,0.24788073662671734
1747151820.8692315,1.001986,-0.002196,0.091988,-0.0175,0.1925,0.525,-0.6632563577901198,-0.5542239111370945,0.24788073662671734
1747151820.874102,1.001376,0.00061,0.091256,-0.17500000000000002,0.29750000000000004,0.5425000000000001,-0.6691026015784858,-0.5565624086524408,0.23633440514469453
1747151820.8789837,1.000034,-0.0017079999999999999,0.0915,-0.08750000000000001,0.36750000000000005,0.6300000000000001,-0.6691026015784858,-0.5565624086524408,0.23633440514469453
1747151820.8838515,1.0004,-0.001098,0.09211,-0.15750000000000003,0.2625,0.5425000000000001,-0.6691026015784858,-0.5565624086524408,0.23633440514469453
1747151820.888725,1.000522,-0.0023179999999999997,0.092232,-0.24500000000000002,0.35000000000000003,0.5950000000000001,-0.6691026015784858,-0.5565624086524408,0.23633440514469453
1747151820.8935938,0.970876,-0.001464,0.092476,-0.1925,0.385,0.56,-0.6691026015784858,-0.5565624086524408,0.23633440514469453
1747151820.8984606,1.001376,-0.001586,0.092476,-0.17500000000000002,0.385,0.5425000000000001,-0.6691026015784858,-0.5565624086524408,0.23633440514469453
1747151820.903335,1.002962,-0.0030499999999999998,0.091866,-0.21000000000000002,0.36750000000000005,0.56,-0.6691026015784858,-0.5565624086524408,0.23633440514469453
1747151820.9082046,0.99918,-0.000976,0.091988,-0.21000000000000002,0.35000000000000003,0.5425000000000001,-0.6691026015784858,-0.5565624086524408,0.23633440514469453
1747151820.9130821,1.003084,-0.000732,0.09113399999999999,-0.14,0.29750000000000004,0.5425000000000001,-0.6691026015784858,-0.5565624086524408,0.23633440514469453
1747151820.9188545,1.002108,-0.002806,0.090646,-0.1925,0.35000000000000003,0.5950000000000001,-0.6691026015784858,-0.5565624086524408,0.23633440514469453
1747151820.9228318,1.000156,-0.001952,0.092598,-0.15750000000000003,0.3325,0.5425000000000001,-0.6699795381467407,-0.5565624086524408,0.2341420637240573
1747151820.9277027,0.999912,-0.000732,0.092232,-0.08750000000000001,0.2625,0.5950000000000001,-0.6699795381467407,-0.5565624086524408,0.2341420637240573
1747151820.932572,1.00162,-0.000488,0.093086,-0.0175,0.24500000000000002,0.56,-0.6699795381467407,-0.5565624086524408,0.2341420637240573
1747151820.9374442,1.00162,-0.002196,0.09394,-0.052500000000000005,0.35000000000000003,0.5425000000000001,-0.6699795381467407,-0.5565624086524408,0.2341420637240573
1747151820.942315,1.001376,0.0,0.091622,-0.035,0.31500000000000006,0.5075000000000001,-0.6699795381467407,-0.5565624086524408,0.2341420637240573
1747151820.9471874,1.001376,-0.002806,0.091622,-0.0175,0.21000000000000002,0.5075000000000001,-0.6699795381467407,-0.5565624086524408,0.2341420637240573
