Timestamp,Accel X,Accel Y,Accel Z,Gyro X,Gyro Y,Gyro Z,Magneto X,Magneto Y,Magneto Z
1745335970.905724,0.716872,0.015006,0.115534,-163.69500000000002,179.56750000000002,567.4725000000001,-0.2952353113124817,0.09821689564454837,-0.17743349897690733
1745335970.9857726,1.135942,0.055998,0.212402,-61.5825,155.33,-493.01000000000005,-0.2952353113124817,0.09821689564454837,-0.17743349897690733
1745335971.0658731,1.3249199999999999,0.032452,0.247416,-30.047500000000003,-12.162500000000001,-4.9350000000000005,-0.2952353113124817,0.09821689564454837,-0.17743349897690733
1745335971.1459427,1.23952,0.034526,0.248148,-52.9025,-20.720000000000002,-17.395000000000003,-0.2952353113124817,0.09821689564454837,-0.17743349897690733
1745335971.2260127,1.1241079999999999,0.014274,0.22326,-69.03750000000001,-15.820000000000002,-3.9025000000000003,-0.2952353113124817,0.09821689564454837,-0.17743349897690733
1745335971.3061087,0.893406,0.087108,0.021471999999999998,-66.605,-15.277500000000002,-13.7375,-0.2952353113124817,0.09821689564454837,-0.17743349897690733
1745335971.386181,0.826062,0.14652199999999999,0.13480999999999999,-61.75750000000001,-10.885000000000002,-34.86000000000001,-0.2952353113124817,0.09821689564454837,-0.17743349897690733
1745335971.4663336,0.901946,0.119072,0.02623,-84.0875,-11.252500000000001,-29.19,-0.2952353113124817,0.09821689564454837,-0.17743349897690733
1745335971.5463805,0.953552,0.089304,0.162382,-77.525,1.8725000000000003,-28.42,-0.2952353113124817,0.09821689564454837,-0.17743349897690733
1745335971.6264782,0.906094,0.02501,0.173484,-61.02250000000001,19.7575,-26.005000000000003,-0.2952353113124817,0.09821689564454837,-0.17743349897690733
1745335971.7065427,0.8836459999999999,0.11956,0.161406,-46.550000000000004,21.770000000000003,-15.015,-0.2952353113124817,0.09821689564454837,-0.17743349897690733
1745335971.7866383,0.843508,0.197396,0.14945,-45.377500000000005,8.137500000000001,3.3950000000000005,-0.2952353113124817,0.09821689564454837,-0.17743349897690733
1745335971.8667138,0.844728,0.279014,0.12224399999999999,-42.157500000000006,-10.762500000000001,5.8100000000000005,-0.2952353113124817,0.09821689564454837,-0.17743349897690733
1745335971.9468045,0.898286,0.193126,0.125904,-41.510000000000005,-34.965,5.3375,-0.2952353113124817,0.09821689564454837,-0.17743349897690733
1745335972.026878,0.92354,0.2379,0.164578,-38.255,-36.102500000000006,12.88,-0.2952353113124817,0.09821689564454837,-0.17743349897690733
1745335972.10697,0.856318,0.186172,0.103578,-43.050000000000004,-33.845000000000006,6.195,-0.2952353113124817,0.09821689564454837,-0.17743349897690733
1745335972.1870415,0.865712,0.14884,0.010248,-36.977500000000006,-27.457500000000003,-4.532500000000001,-0.2952353113124817,0.09821689564454837,-0.17743349897690733
1745335972.2671318,0.980148,0.10736,0.020252,-39.165000000000006,-5.8100000000000005,3.4475000000000002,-0.2952353113124817,0.09821689564454837,-0.17743349897690733
1745335972.347208,1.135454,0.148474,0.056974,-30.345000000000002,4.41,9.3975,-0.35428237357497805,-0.028061970184156678,-0.22478807366267173
1745335972.4272997,1.025776,0.063684,0.100894,-39.987500000000004,-39.0775,-3.7800000000000002,-0.35428237357497805,-0.028061970184156678,-0.22478807366267173
1745335972.5097075,0.907314,0.034282,0.025986,-48.002500000000005,-19.985000000000003,0.0175,-0.35428237357497805,-0.028061970184156678,-0.22478807366267173
1745335972.5874665,0.965264,0.116754,0.08113,-37.9575,-6.8425,-16.240000000000002,-0.35428237357497805,-0.028061970184156678,-0.22478807366267173
1745335972.6691515,0.833504,0.014884,0.032452,-45.92,0.29750000000000004,-1.225,-0.35428237357497805,-0.028061970184156678,-0.22478807366267173
1745335972.7476335,0.906216,0.07869,-0.070516,-45.395,-19.950000000000003,3.1500000000000004,-0.35428237357497805,-0.028061970184156678,-0.22478807366267173
1745335972.828632,1.011624,0.033549999999999996,-0.091622,-27.160000000000004,-4.3925,7.367500000000001,-0.35428237357497805,-0.028061970184156678,-0.22478807366267173
1745335972.907792,1.035658,0.119804,-0.174094,-14.017500000000002,-5.915000000000001,11.9875,-0.35428237357497805,-0.028061970184156678,-0.22478807366267173
1745335972.988039,1.304912,0.20984,-0.085522,-4.515000000000001,-4.83,-5.040000000000001,-0.35428237357497805,-0.028061970184156678,-0.22478807366267173
1745335973.0679624,1.062986,0.195078,0.057462,12.722500000000002,-5.197500000000001,7.612500000000001,-0.35428237357497805,-0.028061970184156678,-0.22478807366267173
1745335973.1480358,1.028094,0.058072,0.039284,9.870000000000001,-15.715000000000002,22.977500000000003,-0.35428237357497805,-0.028061970184156678,-0.22478807366267173
1745335973.2281284,0.770308,0.057706,-0.060146,13.440000000000001,0.47250000000000003,39.9525,-0.35428237357497805,-0.028061970184156678,-0.22478807366267173
1745335973.3081949,0.695888,0.11931599999999999,-0.000244,12.477500000000001,5.617500000000001,28.980000000000004,-0.35428237357497805,-0.028061970184156678,-0.22478807366267173
1745335973.3882868,0.910608,0.137128,-0.105408,2.4675000000000002,4.0075,0.6475000000000001,-0.35428237357497805,-0.028061970184156678,-0.22478807366267173
1745335973.468363,1.113494,0.061488,-0.11406999999999999,0.3325,-0.6475000000000001,-12.215000000000002,-0.35428237357497805,-0.028061970184156678,-0.22478807366267173
1745335973.5484474,1.185718,-0.09406199999999999,0.123098,-18.777500000000003,10.430000000000001,-20.195,-0.35428237357497805,-0.028061970184156678,-0.22478807366267173
1745335973.6314762,0.950014,-0.126758,0.024278,-17.605,4.4275,-21.455000000000002,-0.35428237357497805,-0.028061970184156678,-0.22478807366267173
1745335973.7086256,0.892064,-0.010369999999999999,0.074298,-13.265,5.8100000000000005,-10.430000000000001,-0.35428237357497805,-0.028061970184156678,-0.22478807366267173
1745335973.7916472,0.766648,0.094306,0.032574,-7.7700000000000005,10.902500000000002,10.675,-0.35428237357497805,-0.028061970184156678,-0.22478807366267173
1745335973.8687959,0.85522,-0.0008539999999999999,-0.128832,-27.457500000000003,3.6400000000000006,11.375000000000002,-0.36714410990938323,0.06372405729318913,-0.12540192926045016
1745335973.9518168,1.095316,-0.017446,-0.086864,-22.5925,-2.8525000000000005,1.7675,-0.36714410990938323,0.06372405729318913,-0.12540192926045016
1745335974.0289602,1.237446,0.019398,-0.048312,-4.760000000000001,-7.315,-0.665,-0.36714410990938323,0.06372405729318913,-0.12540192926045016
1745335974.1119964,1.221098,0.10919,0.117364,-9.3625,3.3425000000000002,-14.1575,-0.36714410990938323,0.06372405729318913,-0.12540192926045016
1745335974.18913,1.148508,0.20679,0.10406599999999999,-11.935,-5.9675,-5.1450000000000005,-0.36714410990938323,0.06372405729318913,-0.12540192926045016
1745335974.2721593,0.949526,0.151402,0.103212,-3.4825000000000004,6.8775,13.055000000000001,-0.36714410990938323,0.06372405729318913,-0.12540192926045016
1745335974.3493023,0.698694,0.08942599999999999,-0.003172,4.2525,17.4125,0.42000000000000004,-0.36714410990938323,0.06372405729318913,-0.12540192926045016
1745335974.4323485,0.719922,0.112118,-0.005124,6.825000000000001,10.920000000000002,1.6450000000000002,-0.36714410990938323,0.06372405729318913,-0.12540192926045016
1745335974.509465,0.959774,0.145546,-0.01891,11.13,-3.0625000000000004,14.752500000000001,-0.36714410990938323,0.06372405729318913,-0.12540192926045016
1745335974.589554,1.181204,0.120414,-0.014274,7.840000000000001,-9.555000000000001,10.15,-0.36714410990938323,0.06372405729318913,-0.12540192926045016
1745335974.6696243,1.078724,-0.055388,0.188368,-18.340000000000003,6.580000000000001,5.1625000000000005,-0.36714410990938323,0.06372405729318913,-0.12540192926045016
1745335974.7497263,0.998692,-0.052582,0.134932,-9.030000000000001,-9.2925,6.265000000000001,-0.36714410990938323,0.06372405729318913,-0.12540192926045016
1745335974.8297944,0.815082,-0.0008539999999999999,0.058682,-9.8,2.5025000000000004,-6.090000000000001,-0.36714410990938323,0.06372405729318913,-0.12540192926045016
1745335974.909896,0.7677459999999999,0.006954,-0.04087,-7.245000000000001,3.2725000000000004,-6.965000000000001,-0.36714410990938323,0.06372405729318913,-0.12540192926045016
1745335974.9899635,0.84729,-0.027694,-0.080276,1.6975000000000002,0.5775,-1.995,-0.36714410990938323,0.06372405729318913,-0.12540192926045016
1745335975.0700648,1.023824,-0.033549999999999996,-0.092964,10.815000000000001,-8.4875,8.05,-0.36714410990938323,0.06372405729318913,-0.12540192926045016
1745335975.1501324,1.376404,0.035868,-0.00732,19.635,-20.44,10.2375,-0.36714410990938323,0.06372405729318913,-0.12540192926045016
1745335975.230237,1.309914,0.10052799999999999,0.146766,16.2575,-9.537500000000001,-6.562500000000001,-0.36714410990938323,0.06372405729318913,-0.12540192926045016
1745335975.310303,1.095682,0.116876,0.070516,13.6675,-14.035000000000002,-0.5775,-0.36714410990938323,0.06372405729318913,-0.12540192926045016
1745335975.3904083,0.864004,0.064538,0.097722,18.795,-0.4025,6.982500000000001,-0.38000584624378836,0.08886290558316282,-0.10757088570593394
1745335975.4704738,0.668316,0.058072,-0.0053679999999999995,21.052500000000002,7.717500000000001,0.6125,-0.38000584624378836,0.08886290558316282,-0.10757088570593394
1745335975.5505645,0.76921,0.060878,-0.015493999999999999,16.520000000000003,5.022500000000001,4.987500000000001,-0.38000584624378836,0.08886290558316282,-0.10757088570593394
1745335975.6306345,0.970266,0.055144,-0.07076,7.035000000000001,1.8725000000000003,6.4575000000000005,-0.38000584624378836,0.08886290558316282,-0.10757088570593394
1745335975.7107303,1.150704,0.055754,-0.081374,-5.652500000000001,1.1725,6.6325,-0.38000584624378836,0.08886290558316282,-0.10757088570593394
1745335975.7922492,1.085434,-0.154086,0.102114,-27.755000000000003,8.8025,2.45,-0.38000584624378836,0.08886290558316282,-0.10757088570593394
1745335975.8709166,0.990152,-0.09113399999999999,0.09406199999999999,-13.422500000000001,-4.760000000000001,0.052500000000000005,-0.38000584624378836,0.08886290558316282,-0.10757088570593394
1745335975.9509842,0.790438,-0.037332,-0.00122,-15.680000000000001,-0.22750000000000004,-2.8000000000000003,-0.38000584624378836,0.08886290558316282,-0.10757088570593394
1745335976.031084,0.753472,-0.01464,-0.074664,-14.000000000000002,0.9625000000000001,-0.9975,-0.38000584624378836,0.08886290558316282,-0.10757088570593394
1745335976.1111596,0.8553419999999999,-0.028426,-0.108214,-6.930000000000001,-0.10500000000000001,-0.7875000000000001,-0.38000584624378836,0.08886290558316282,-0.10757088570593394
1745335976.1912603,1.082994,-0.011956,-0.100162,-2.1350000000000002,-4.655,-8.645000000000001,-0.38000584624378836,0.08886290558316282,-0.10757088570593394
1745335976.271336,1.261846,0.008539999999999999,-0.091378,9.695,-10.2375,-23.5375,-0.38000584624378836,0.08886290558316282,-0.10757088570593394
1745335976.3514378,1.257942,0.130906,0.033306,5.32,4.2700000000000005,-27.090000000000003,-0.38000584624378836,0.08886290558316282,-0.10757088570593394
1745335976.431503,1.104344,0.145058,0.096868,7.822500000000001,-6.4750000000000005,-6.317500000000001,-0.38000584624378836,0.08886290558316282,-0.10757088570593394
1745335976.511605,0.9384239999999999,0.094794,0.045506,19.477500000000003,1.5750000000000002,9.1875,-0.38000584624378836,0.08886290558316282,-0.10757088570593394
1745335976.591669,0.70516,0.058316,0.001098,20.580000000000002,22.6975,1.4875,-0.38000584624378836,0.08886290558316282,-0.10757088570593394
1745335976.671769,0.745176,0.087718,-0.022448,22.820000000000004,12.547500000000001,14.490000000000002,-0.38000584624378836,0.08886290558316282,-0.10757088570593394
1745335976.751842,0.961482,0.08601,-0.036478,18.1125,0.08750000000000001,16.975,-0.38000584624378836,0.08886290558316282,-0.10757088570593394
1745335976.8319416,1.1529,0.046848,-0.015616,3.5175000000000005,-4.812500000000001,6.4750000000000005,-0.38000584624378836,0.08886290558316282,-0.10757088570593394
1745335976.9120126,1.339316,-0.027938,0.058438,-30.555000000000003,13.457500000000001,3.3775000000000004,-0.3612978661210172,0.09061677871967261,-0.15171002630809705
1745335976.992112,0.982588,-0.096868,0.166042,-11.760000000000002,4.550000000000001,3.3600000000000003,-0.3612978661210172,0.09061677871967261,-0.15171002630809705
1745335977.0721867,0.750422,-0.034159999999999996,0.038796,-19.705000000000002,6.2125,-5.197500000000001,-0.3612978661210172,0.09061677871967261,-0.15171002630809705
1745335977.1522858,0.73505,-0.0071979999999999995,-0.063928,-23.380000000000003,2.1875,-6.947500000000001,-0.3612978661210172,0.09061677871967261,-0.15171002630809705
1745335977.2323568,0.879254,-0.037087999999999996,-0.09272,-17.902500000000003,-2.7300000000000004,-4.2175,-0.3612978661210172,0.09061677871967261,-0.15171002630809705
1745335977.3124566,1.0857999999999999,-0.008173999999999999,-0.05795,-6.9125000000000005,-9.957500000000001,-0.31500000000000006,-0.3612978661210172,0.09061677871967261,-0.15171002630809705
1745335977.3925276,1.2890519999999999,0.02318,-0.055022,7.857500000000001,-14.437500000000002,-5.635000000000001,-0.3612978661210172,0.09061677871967261,-0.15171002630809705
1745335977.4726188,1.251598,0.130052,0.106872,-1.6450000000000002,4.585000000000001,-21.017500000000002,-0.3612978661210172,0.09061677871967261,-0.15171002630809705
1745335977.5526953,1.124962,0.076128,0.116876,-5.407500000000001,-7.140000000000001,-5.425000000000001,-0.3612978661210172,0.09061677871967261,-0.15171002630809705
1745335977.6327887,0.8866959999999999,0.058438,0.074054,13.492500000000001,0.525,10.045000000000002,-0.3612978661210172,0.09061677871967261,-0.15171002630809705
1745335977.7128634,0.680638,0.045994,0.022692,18.777500000000003,5.390000000000001,2.975,-0.3612978661210172,0.09061677871967261,-0.15171002630809705
1745335977.792959,0.725656,0.093574,-0.020007999999999998,20.160000000000004,-6.195,8.102500000000001,-0.3612978661210172,0.09061677871967261,-0.15171002630809705
1745335977.8730338,0.969534,0.096502,-0.062098,11.0075,-8.855,8.540000000000001,-0.3612978661210172,0.09061677871967261,-0.15171002630809705
1745335977.9531295,1.194502,0.061244,-0.070516,2.5375,-4.62,7.105,-0.3612978661210172,0.09061677871967261,-0.15171002630809705
1745335978.0332017,1.403,-0.02989,0.061,-8.7675,10.2025,9.3975,-0.3612978661210172,0.09061677871967261,-0.15171002630809705
1745335978.113295,0.926346,-0.018666,0.145058,-4.235,1.6275000000000002,-6.265000000000001,-0.3612978661210172,0.09061677871967261,-0.15171002630809705
1745335978.1933725,0.7141879999999999,-0.033549999999999996,-0.030255999999999998,-23.887500000000003,7.630000000000001,-14.350000000000001,-0.3612978661210172,0.09061677871967261,-0.15171002630809705
1745335978.2734697,0.726754,-0.001586,-0.07808,-22.715000000000003,0.5950000000000001,-8.05,-0.3612978661210172,0.09061677871967261,-0.15171002630809705
1745335978.3535445,0.916952,-0.017202,-0.095404,-18.532500000000002,-4.0075,-2.4675000000000002,-0.3612978661210172,0.09061677871967261,-0.15171002630809705
1745335978.433638,1.154608,0.026595999999999998,-0.029768,-4.340000000000001,-7.875000000000001,0.28,-0.3572054954691611,0.06255480853551593,-0.08184741303712365
1745335978.5137167,1.322968,0.0915,-0.061975999999999996,9.1875,-12.652500000000002,-8.732500000000002,-0.3572054954691611,0.06255480853551593,-0.08184741303712365
1745335978.5938082,1.225368,0.17263,0.127246,-1.61,1.2600000000000002,-23.747500000000002,-0.3572054954691611,0.06255480853551593,-0.08184741303712365
1745335978.6738834,1.140334,0.131028,0.066734,1.4700000000000002,-9.852500000000001,2.24,-0.3572054954691611,0.06255480853551593,-0.08184741303712365
1745335978.753979,0.793976,0.046726,0.097966,15.330000000000002,6.4575000000000005,10.517500000000002,-0.3572054954691611,0.06255480853551593,-0.08184741303712365
1745335978.8340523,0.641842,0.040015999999999996,-0.004392,22.347500000000004,0.21000000000000002,11.252500000000001,-0.3572054954691611,0.06255480853551593,-0.08184741303712365
1745335978.9141483,0.777994,0.110166,-0.073078,24.2025,-11.392500000000002,17.57,-0.3572054954691611,0.06255480853551593,-0.08184741303712365
1745335978.9942245,1.00345,0.11809599999999999,-0.105896,3.1325000000000003,-8.82,10.535,-0.3572054954691611,0.06255480853551593,-0.08184741303712365
1745335979.0743194,1.234396,0.05246,-0.067588,-11.97,-4.4625,8.82,-0.3572054954691611,0.06255480853551593,-0.08184741303712365
1745335979.1543949,1.336388,0.00061,0.09759999999999999,-18.392500000000002,23.8,8.96,-0.3572054954691611,0.06255480853551593,-0.08184741303712365
1745335979.2345035,0.890844,-0.026108,0.08662,-7.227500000000001,15.417500000000002,-8.96,-0.3572054954691611,0.06255480853551593,-0.08184741303712365
1745335979.3145628,0.7076,-0.028304,-0.030987999999999998,-17.745,11.4275,-12.985000000000001,-0.3572054954691611,0.06255480853551593,-0.08184741303712365
1745335979.394661,0.768112,0.001586,-0.07564,-13.807500000000001,1.715,-1.2950000000000002,-0.3572054954691611,0.06255480853551593,-0.08184741303712365
1745335979.4747343,0.910974,-0.033428,-0.084912,-6.807500000000001,-0.8225000000000001,2.415,-0.3572054954691611,0.06255480853551593,-0.08184741303712365
1745335979.5548244,1.1381379999999999,-0.00976,-0.038918,1.2775,-12.670000000000002,10.780000000000001,-0.3572054954691611,0.06255480853551593,-0.08184741303712365
1745335979.634922,1.378356,0.091866,0.021471999999999998,7.402500000000001,-8.977500000000001,0.385,-0.3572054954691611,0.06255480853551593,-0.08184741303712365
1745335979.7149959,1.206702,0.081618,0.187392,2.4850000000000003,5.215000000000001,-13.842500000000001,-0.3572054954691611,0.06255480853551593,-0.08184741303712365
1745335979.795109,1.1399679999999999,0.107238,0.143228,14.752500000000001,-5.32,5.0575,-0.3572054954691611,0.06255480853551593,-0.08184741303712365
1745335979.8751707,0.7789699999999999,0.014395999999999999,0.062464,23.835,8.715000000000002,4.7250000000000005,-0.3572054954691611,0.06255480853551593,-0.08184741303712365
1745335979.955283,0.653066,0.054412,-0.01159,25.445000000000004,5.635000000000001,-1.5225000000000002,-0.3478515054077755,0.06664717918737212,-0.11984799766150249
1745335980.0353482,0.810202,0.084546,-0.027327999999999998,19.687500000000004,-10.6575,11.305000000000001,-0.3478515054077755,0.06664717918737212,-0.11984799766150249
1745335980.1154556,1.032486,0.073078,-0.042943999999999996,6.965000000000001,-13.807500000000001,8.155000000000001,-0.3478515054077755,0.06664717918737212,-0.11984799766150249
1745335980.1955192,1.297836,0.01464,-0.027327999999999998,-12.582500000000001,-7.175000000000001,10.010000000000002,-0.3478515054077755,0.06664717918737212,-0.11984799766150249
1745335980.275628,1.273924,-0.10248,0.16128399999999998,-26.285000000000004,19.040000000000003,9.030000000000001,-0.3478515054077755,0.06664717918737212,-0.11984799766150249
1745335980.3556998,0.822524,-0.048312,0.10248,-8.75,11.742500000000001,-11.0425,-0.3478515054077755,0.06664717918737212,-0.11984799766150249
1745335980.435808,0.652944,-0.015006,-0.037942,-15.557500000000001,5.635000000000001,-9.975000000000001,-0.3478515054077755,0.06664717918737212,-0.11984799766150249
1745335980.5158856,0.787266,0.00915,-0.055754,-13.2475,2.5725000000000002,-5.985,-0.3478515054077755,0.06664717918737212,-0.11984799766150249
1745335980.595992,0.95221,-0.009882,-0.083814,-4.2875000000000005,3.08,-4.532500000000001,-0.3478515054077755,0.06664717918737212,-0.11984799766150249
1745335980.6760647,1.235006,-0.008173999999999999,0.001586,8.592500000000001,-8.102500000000001,-2.7300000000000004,-0.3478515054077755,0.06664717918737212,-0.11984799766150249
1745335980.7561727,1.428742,0.15677,0.109678,15.802500000000002,-1.715,-18.1125,-0.3478515054077755,0.06664717918737212,-0.11984799766150249
1745335980.8362439,1.2263439999999999,0.093086,0.200934,8.645000000000001,-2.8000000000000003,-17.990000000000002,-0.3478515054077755,0.06664717918737212,-0.11984799766150249
1745335980.9181411,0.99979,0.050996,0.116632,17.01,-2.9050000000000002,1.3825,-0.3478515054077755,0.06664717918737212,-0.11984799766150249
1745335980.9964302,0.661484,0.055388,0.0427,17.9725,13.405000000000001,0.47250000000000003,-0.3478515054077755,0.06664717918737212,-0.11984799766150249
1745335981.0765266,0.656116,0.107726,0.026718,19.565,0.5425000000000001,6.65,-0.3478515054077755,0.06664717918737212,-0.11984799766150249
1745335981.1566021,0.856684,0.08967,-0.051606,15.505,-14.927500000000002,10.780000000000001,-0.3478515054077755,0.06664717918737212,-0.11984799766150249
1745335981.2366953,1.132526,0.14127599999999998,-0.047824,6.6675,-12.565000000000001,5.565,-0.3478515054077755,0.06664717918737212,-0.11984799766150249
1745335981.3167644,1.420202,0.028548,0.0071979999999999995,-5.232500000000001,-11.812500000000002,12.985000000000001,-0.3478515054077755,0.06664717918737212,-0.11984799766150249
1745335981.3968623,1.143994,-0.078202,0.17116599999999998,-19.477500000000003,10.2725,2.5725000000000002,-0.3478515054077755,0.06664717918737212,-0.11984799766150249
1745335981.4769335,0.769698,0.002196,0.036722,-15.190000000000001,10.850000000000001,-7.9625,-0.36071324174218067,0.07307804735457468,-0.11458637825197311
1745335981.557032,0.704184,0.017079999999999998,-0.038064,-17.605,7.105,-9.940000000000001,-0.36071324174218067,0.07307804735457468,-0.11458637825197311
1745335981.6370986,0.82594,0.001464,-0.05307,-10.465000000000002,2.8875,-4.025,-0.36071324174218067,0.07307804735457468,-0.11458637825197311
1745335981.717194,0.995032,0.032818,-0.062952,0.3325,-4.9175,1.2425000000000002,-0.36071324174218067,0.07307804735457468,-0.11458637825197311
1745335981.797265,1.305888,0.068442,-0.05551,8.4175,-16.012500000000003,1.5925000000000002,-0.36071324174218067,0.07307804735457468,-0.11458637825197311
1745335981.8773572,1.367742,0.179706,0.14335,3.7275000000000005,3.0100000000000002,-19.495,-0.36071324174218067,0.07307804735457468,-0.11458637825197311
1745335981.9574327,1.219146,0.135908,0.115534,5.0925,-7.805000000000001,-7.035000000000001,-0.36071324174218067,0.07307804735457468,-0.11458637825197311
1745335982.0375266,0.901702,0.05856,0.095404,22.820000000000004,0.9625000000000001,9.170000000000002,-0.36071324174218067,0.07307804735457468,-0.11458637825197311
1745335982.1176157,0.634644,0.056119999999999996,-0.003294,27.895000000000003,10.062500000000002,9.975000000000001,-0.36071324174218067,0.07307804735457468,-0.11458637825197311
1745335982.197692,0.688446,0.093696,-0.006954,22.925,0.24500000000000002,15.9075,-0.36071324174218067,0.07307804735457468,-0.11458637825197311
1745335982.2777667,0.88084,0.07808,-0.05063,13.930000000000001,-4.760000000000001,10.010000000000002,-0.36071324174218067,0.07307804735457468,-0.11458637825197311
1745335982.3578653,1.213778,0.07710399999999999,-0.019154,7.420000000000001,-7.822500000000001,7.682500000000001,-0.36071324174218067,0.07307804735457468,-0.11458637825197311
1745335982.4379373,1.47803,0.008905999999999999,0.07137,-5.1450000000000005,-3.535,11.0075,-0.36071324174218067,0.07307804735457468,-0.11458637825197311
1745335982.5180333,1.122034,-0.177998,0.13602999999999998,-13.982500000000002,3.535,-8.190000000000001,-0.36071324174218067,0.07307804735457468,-0.11458637825197311
1745335982.5981038,0.6895439999999999,-0.008784,-0.020374,-25.410000000000004,9.415000000000001,-13.457500000000001,-0.36071324174218067,0.07307804735457468,-0.11458637825197311
1745335982.6781976,0.7394419999999999,0.028059999999999998,-0.047945999999999996,-23.992500000000003,0.77,-7.105,-0.36071324174218067,0.07307804735457468,-0.11458637825197311
1745335982.758275,0.871324,-0.00061,-0.07808,-15.120000000000001,-3.2025,-3.8675,-0.36071324174218067,0.07307804735457468,-0.11458637825197311
1745335982.8383675,1.1265479999999999,0.065148,-0.063806,-0.3325,-3.7450000000000006,-2.7300000000000004,-0.36071324174218067,0.07307804735457468,-0.11458637825197311
1745335982.9184449,1.34261,0.11931599999999999,-0.10052799999999999,9.3625,0.08750000000000001,-5.8100000000000005,-0.36071324174218067,0.07307804735457468,-0.11458637825197311
1745335982.9985528,1.3291899999999999,0.196908,0.155062,-0.5425000000000001,7.612500000000001,-19.617500000000003,-0.3741596024554224,0.043846828412744815,-0.11020169541069863
1745335983.0786283,1.123742,0.165798,0.144814,10.99,-14.822500000000002,-0.8925000000000001,-0.3741596024554224,0.043846828412744815,-0.11020169541069863
1745335983.1587205,0.7567659999999999,0.072956,0.077958,26.740000000000002,1.8200000000000003,4.3925,-0.3741596024554224,0.043846828412744815,-0.11020169541069863
1745335983.238798,0.610366,0.080276,-0.005856,29.715000000000003,11.655000000000001,3.08,-0.3741596024554224,0.043846828412744815,-0.11020169541069863
1745335983.318894,0.7406619999999999,0.122,-0.022448,26.67,0.5950000000000001,12.075000000000001,-0.3741596024554224,0.043846828412744815,-0.11020169541069863
1745335983.3989654,1.055178,0.156648,-0.08601,15.890000000000002,-0.8750000000000001,7.472500000000001,-0.3741596024554224,0.043846828412744815,-0.11020169541069863
1745335983.4790623,1.2385439999999999,0.102358,-0.025863999999999998,0.36750000000000005,2.4850000000000003,4.69,-0.3741596024554224,0.043846828412744815,-0.11020169541069863
1745335983.5591393,1.274778,0.060511999999999996,0.1098,-16.1525,12.635000000000002,-1.1025,-0.3741596024554224,0.043846828412744815,-0.11020169541069863
1745335983.639231,1.084336,-0.063684,0.198616,-28.210000000000004,6.720000000000001,-6.597500000000001,-0.3741596024554224,0.043846828412744815,-0.11020169541069863
1745335983.719305,0.9675819999999999,0.041846,0.16128399999999998,-25.1825,9.1875,-14.262500000000001,-0.3741596024554224,0.043846828412744815,-0.11020169541069863
1745335983.799403,0.725656,0.050752,-0.051727999999999996,-25.69,4.6025,-7.402500000000001,-0.3741596024554224,0.043846828412744815,-0.11020169541069863
1745335983.8794773,0.888892,0.013786,-0.10284599999999999,-17.4825,3.7100000000000004,-1.6275000000000002,-0.3741596024554224,0.043846828412744815,-0.11020169541069863
1745335983.95957,1.202676,0.087352,0.005246,-1.2075,-9.432500000000001,9.38,-0.3741596024554224,0.043846828412744815,-0.11020169541069863
1745335984.0396397,1.444724,0.20105599999999998,0.068808,1.995,-3.3075,-1.0150000000000001,-0.3741596024554224,0.043846828412744815,-0.11020169541069863
1745335984.119728,1.195112,0.166164,0.216428,-2.975,4.970000000000001,-17.080000000000002,-0.3741596024554224,0.043846828412744815,-0.11020169541069863
1745335984.1997988,1.04188,0.200812,0.152866,14.052500000000002,-7.472500000000001,1.8375000000000001,-0.3741596024554224,0.043846828412744815,-0.11020169541069863
1745335984.279893,0.788364,0.10309,0.129198,27.8425,5.285,9.590000000000002,-0.3741596024554224,0.043846828412744815,-0.11020169541069863
1745335984.3599622,0.624762,0.096258,-0.0050019999999999995,29.487500000000004,10.832500000000001,3.7800000000000002,-0.3741596024554224,0.043846828412744815,-0.11020169541069863
1745335984.440056,0.771162,0.13359,-0.0026839999999999998,21.7175,-2.555,12.705000000000002,-0.3741596024554224,0.043846828412744815,-0.11020169541069863
1745335984.520126,1.070062,0.144082,-0.000122,8.277500000000002,-11.5325,11.445,-0.3519438760596317,0.03800058462437884,-0.13446360713241742
1745335984.6002223,1.342854,0.10675,0.02623,-11.760000000000002,-9.8,6.23,-0.3519438760596317,0.03800058462437884,-0.13446360713241742
1745335984.6813183,1.2354939999999999,-0.0017079999999999999,0.20410599999999998,-30.03,11.847500000000002,-3.8150000000000004,-0.3519438760596317,0.03800058462437884,-0.13446360713241742
1745335984.7603881,1.067744,-0.069052,0.166164,-22.26,-5.495,-2.24,-0.3519438760596317,0.03800058462437884,-0.13446360713241742
1745335984.8407774,0.832406,0.035013999999999997,0.127124,-16.485000000000003,-5.687500000000001,-7.805000000000001,-0.3519438760596317,0.03800058462437884,-0.13446360713241742
1745335984.9205494,0.7592059999999999,0.06417199999999999,-0.051484,-18.340000000000003,0.29750000000000004,-0.17500000000000002,-0.3519438760596317,0.03800058462437884,-0.13446360713241742
1745335985.0006201,0.992348,0.012688,-0.133224,-7.665000000000001,5.705000000000001,6.265000000000001,-0.3519438760596317,0.03800058462437884,-0.13446360713241742
1745335985.0807266,1.2817319999999999,0.040382,0.016592,10.465000000000002,-6.125000000000001,10.395000000000001,-0.3519438760596317,0.03800058462437884,-0.13446360713241742
1745335985.1607769,1.353834,0.14762,0.028182,10.290000000000001,0.8750000000000001,-4.445,-0.3519438760596317,0.03800058462437884,-0.13446360713241742
1745335985.2408707,1.158634,0.139934,0.18409799999999998,-1.12,1.7850000000000001,-9.3975,-0.3519438760596317,0.03800058462437884,-0.13446360713241742
1745335985.3209372,0.990152,0.131272,0.140788,7.910000000000001,-8.3125,10.307500000000001,-0.3519438760596317,0.03800058462437884,-0.13446360713241742
1745335985.4010313,0.749812,0.081984,0.07259,17.115000000000002,5.53,14.507500000000002,-0.3519438760596317,0.03800058462437884,-0.13446360713241742
1745335985.4810975,0.68015,0.07137,0.020618,15.277500000000002,11.445,7.9625,-0.3519438760596317,0.03800058462437884,-0.13446360713241742
1745335985.5611908,0.819596,0.077836,0.000488,7.3500000000000005,0.7350000000000001,11.690000000000001,-0.3519438760596317,0.03800058462437884,-0.13446360713241742
1745335985.6443717,1.0870199999999999,0.105286,-0.02745,1.8200000000000003,-8.207500000000001,5.985,-0.3519438760596317,0.03800058462437884,-0.13446360713241742
1745335985.721355,1.336998,0.047945999999999996,0.024156,-10.465000000000002,-7.5425,4.0600000000000005,-0.3519438760596317,0.03800058462437884,-0.13446360713241742
1745335985.8045292,1.267214,-0.024034,0.186416,-25.602500000000003,12.285000000000002,0.08750000000000001,-0.3519438760596317,0.03800058462437884,-0.13446360713241742
1745335985.8815253,1.01504,-0.120292,0.108702,-25.917500000000004,-3.5700000000000003,-4.375,-0.3519438760596317,0.03800058462437884,-0.13446360713241742
1745335985.9693742,0.839726,0.013908,0.136274,-27.44,5.3725000000000005,-14.052500000000002,-0.3519438760596317,0.03800058462437884,-0.13446360713241742
1745335986.0440383,0.7771399999999999,0.050996,-0.081984,-19.180000000000003,5.040000000000001,-3.1325000000000003,-0.35895936860567085,0.06547793042969892,-0.09909383221280327
1745335986.1218522,1.004426,0.019764,-0.0793,-7.000000000000001,5.565,-0.22750000000000004,-0.35895936860567085,0.06547793042969892,-0.09909383221280327
1745335986.2019165,1.236592,0.045628,0.0037819999999999998,9.73,-6.0025,-3.0100000000000002,-0.35895936860567085,0.06547793042969892,-0.09909383221280327
1745335986.282017,1.369572,0.169824,0.073688,11.4975,-0.8400000000000001,-9.870000000000001,-0.35895936860567085,0.06547793042969892,-0.09909383221280327
1745335986.3620858,1.216462,0.18239,0.212402,6.825000000000001,-5.862500000000001,-7.402500000000001,-0.35895936860567085,0.06547793042969892,-0.09909383221280327
1745335986.442185,0.980514,0.167384,0.13176,18.725,-9.6775,8.260000000000002,-0.35895936860567085,0.06547793042969892,-0.09909383221280327
1745335986.5222464,0.695888,0.083082,0.067588,22.155,2.1525000000000003,10.745000000000001,-0.35895936860567085,0.06547793042969892,-0.09909383221280327
1745335986.602345,0.6655099999999999,0.068808,0.024766,24.745,0.8225000000000001,9.835,-0.35895936860567085,0.06547793042969892,-0.09909383221280327
1745335986.6824121,0.844118,0.09943,-0.011346,22.067500000000003,-9.415000000000001,8.8725,-0.35895936860567085,0.06547793042969892,-0.09909383221280327
1745335986.762526,1.101782,0.110898,-0.06405,10.395000000000001,-9.1875,7.647500000000001,-0.35895936860567085,0.06547793042969892,-0.09909383221280327
1745335986.8425758,1.339194,0.047702,-0.02196,-12.8625,-7.192500000000001,13.072500000000002,-0.35895936860567085,0.06547793042969892,-0.09909383221280327
1745335986.9226735,1.206336,-0.029523999999999998,0.170922,-33.53,13.387500000000001,3.08,-0.35895936860567085,0.06547793042969892,-0.09909383221280327
1745335987.0027444,1.0273619999999999,-0.063684,0.1159,-24.2025,-0.5425000000000001,2.3275,-0.35895936860567085,0.06547793042969892,-0.09909383221280327
1745335987.0828419,0.811178,0.044286,0.072102,-18.532500000000002,6.072500000000001,-6.370000000000001,-0.35895936860567085,0.06547793042969892,-0.09909383221280327
1745335987.1629107,0.785558,0.030744,-0.08820599999999999,-13.440000000000001,10.482500000000002,-3.1500000000000004,-0.35895936860567085,0.06547793042969892,-0.09909383221280327
1745335987.2430086,1.003084,0.024399999999999998,-0.053191999999999996,5.040000000000001,7.140000000000001,4.3925,-0.35895936860567085,0.06547793042969892,-0.09909383221280327
1745335987.3230798,1.289906,0.047945999999999996,0.011467999999999999,18.725,-0.08750000000000001,4.8475,-0.35895936860567085,0.06547793042969892,-0.09909383221280327
1745335987.4031792,1.3772579999999999,0.191418,0.09272,15.435000000000002,11.515,-13.545000000000002,-0.35895936860567085,0.06547793042969892,-0.09909383221280327
1745335987.4832456,1.21756,0.11870599999999999,0.262666,8.89,-4.095000000000001,-9.905000000000001,-0.35895936860567085,0.06547793042969892,-0.09909383221280327
1745335987.563348,0.9472079999999999,0.088572,0.139324,22.96,-11.0775,12.88,-0.3566208710903245,0.06430868167202572,-0.11166325635779012
1745335987.6434116,0.689178,0.070516,0.055754,25.935000000000002,0.9975,11.9875,-0.3566208710903245,0.06430868167202572,-0.11166325635779012
1745335987.7235086,0.655262,0.08003199999999999,0.026595999999999998,26.862500000000004,-3.22,12.250000000000002,-0.3566208710903245,0.06430868167202572,-0.11166325635779012
1745335987.803581,0.848754,0.102602,-0.012444,21.28,-12.967500000000001,7.805000000000001,-0.3566208710903245,0.06430868167202572,-0.11166325635779012
1745335987.8836746,1.163148,0.098576,0.020374,10.377500000000001,-8.592500000000001,1.8725000000000003,-0.3566208710903245,0.06430868167202572,-0.11166325635779012
1745335987.9637463,1.4338659999999999,0.004148,-0.007076,-7.420000000000001,2.7125000000000004,-2.205,-0.3566208710903245,0.06430868167202572,-0.11166325635779012
1745335988.0438528,1.14375,-0.11114199999999999,0.170922,-28.805000000000003,10.465000000000002,-8.8025,-0.3566208710903245,0.06430868167202572,-0.11166325635779012
1745335988.123913,1.01138,-0.081618,0.117852,-27.737500000000004,-10.6575,-6.335000000000001,-0.3566208710903245,0.06430868167202572,-0.11166325635779012
1745335988.204007,0.7567659999999999,-0.029036,0.043432,-34.142500000000005,2.66,-7.175000000000001,-0.3566208710903245,0.06430868167202572,-0.11166325635779012
1745335988.2840822,0.8276479999999999,0.0183,-0.112118,-19.495,-3.9725000000000006,8.505,-0.3566208710903245,0.06430868167202572,-0.11166325635779012
1745335988.364182,1.045906,0.047824,-0.127368,-6.86,-0.9625000000000001,3.115,-0.3566208710903245,0.06430868167202572,-0.11166325635779012
1745335988.444245,1.361886,0.0854,-0.038551999999999996,20.335,-10.027500000000002,-4.3925,-0.3566208710903245,0.06430868167202572,-0.11166325635779012
1745335988.5243402,1.268434,0.039772,0.15481799999999998,22.802500000000002,3.2550000000000003,-20.0375,-0.3566208710903245,0.06430868167202572,-0.11166325635779012
1745335988.604416,1.194868,0.12871,0.135908,13.422500000000001,-9.66,-8.505,-0.3566208710903245,0.06430868167202572,-0.11166325635779012
1745335988.684513,0.9268339999999999,0.067466,0.129442,3.1675000000000004,10.6225,8.715000000000002,-0.3566208710903245,0.06430868167202572,-0.11166325635779012
1745335988.764582,0.621346,0.096136,0.04026,8.592500000000001,25.007500000000004,9.835,-0.3566208710903245,0.06430868167202572,-0.11166325635779012
1745335988.8446715,0.6834439999999999,0.12139,0.022082,14.472500000000002,7.3325000000000005,15.662500000000001,-0.3566208710903245,0.06430868167202572,-0.11166325635779012
1745335988.924744,0.9516,0.119072,-0.06466,16.3975,-7.175000000000001,4.970000000000001,-0.3566208710903245,0.06430868167202572,-0.11166325635779012
1745335989.0048325,1.213046,0.135298,-0.06539199999999999,4.2875000000000005,-13.492500000000001,-2.7125000000000004,-0.3566208710903245,0.06430868167202572,-0.11166325635779012
1745335989.0849056,1.364814,0.002196,0.033672,-15.05,-12.355,-0.805,-0.36246711487869043,0.05904706226249635,-0.08857059339374451
1745335989.1649966,1.1265479999999999,-0.05795,0.12383,-39.4275,1.4000000000000001,-15.715000000000002,-0.36246711487869043,0.05904706226249635,-0.08857059339374451
1745335989.245068,1.01809,-0.005978,0.106872,-26.705000000000002,-5.32,-10.307500000000001,-0.36246711487869043,0.05904706226249635,-0.08857059339374451
1745335989.3251579,0.756278,0.061854,0.011346,-14.752500000000001,7.945000000000001,-4.375,-0.36246711487869043,0.05904706226249635,-0.08857059339374451
1745335989.4052358,0.700768,0.062708,-0.090524,9.555000000000001,-1.8725000000000003,2.9925,-0.36246711487869043,0.05904706226249635,-0.08857059339374451
1745335989.485326,1.012722,0.012199999999999999,-0.162748,17.3775,-7.367500000000001,9.695,-0.36246711487869043,0.05904706226249635,-0.08857059339374451
1745335989.5654001,1.383114,0.06417199999999999,-0.029402,21.192500000000003,-12.495000000000001,4.112500000000001,-0.36246711487869043,0.05904706226249635,-0.08857059339374451
1745335989.6454957,1.388604,0.156648,0.168238,3.2725000000000004,3.9550000000000005,-26.705000000000002,-0.36246711487869043,0.05904706226249635,-0.08857059339374451
1745335989.7255638,1.115934,0.149084,0.069052,-1.9425000000000001,-6.8775,-11.865000000000002,-0.36246711487869043,0.05904706226249635,-0.08857059339374451
1745335989.8056567,0.8030039999999999,0.043676,0.07124799999999999,0.17500000000000002,7.612500000000001,14.262500000000001,-0.36246711487869043,0.05904706226249635,-0.08857059339374451
1745335989.8857272,0.60512,0.050142,0.020862,-0.8225000000000001,21.7875,11.725000000000001,-0.36246711487869043,0.05904706226249635,-0.08857059339374451
1745335989.965822,0.771406,0.14091,0.02196,9.100000000000001,3.08,16.817500000000003,-0.36246711487869043,0.05904706226249635,-0.08857059339374451
1745335990.045894,1.00101,0.138226,-0.09272,8.995000000000001,-9.992500000000001,16.012500000000003,-0.36246711487869043,0.05904706226249635,-0.08857059339374451
1745335990.1259844,1.256112,0.062464,-0.030987999999999998,-5.932500000000001,-6.405,5.7575,-0.36246711487869043,0.05904706226249635,-0.08857059339374451
1745335990.2060556,1.356152,-0.018543999999999998,0.195566,-35.227500000000006,17.185000000000002,2.8525000000000005,-0.36246711487869043,0.05904706226249635,-0.08857059339374451
1745335990.2861493,1.169858,-0.128588,0.17141,-32.620000000000005,6.4750000000000005,-6.545000000000001,-0.36246711487869043,0.05904706226249635,-0.08857059339374451
1745335990.3662238,0.8559519999999999,0.006222,0.089914,-16.887500000000003,2.6075000000000004,-12.197500000000002,-0.36246711487869043,0.05904706226249635,-0.08857059339374451
1745335990.4463165,0.658556,0.041724,-0.026718,-18.0775,-0.6475000000000001,-8.8725,-0.36246711487869043,0.05904706226249635,-0.08857059339374451
1745335990.5263817,0.729804,0.034038,-0.11406999999999999,-8.627500000000001,-9.7125,7.3325000000000005,-0.36246711487869043,0.05904706226249635,-0.08857059339374451
1745335990.6064737,1.246596,0.02013,-0.05795,-3.0975,-17.64,6.0375000000000005,-0.3531131248173049,0.07658579362759427,-0.04940076001169249
1745335990.6871445,1.420934,0.16043,0.102724,-11.410000000000002,-0.9275000000000001,-13.090000000000002,-0.3531131248173049,0.07658579362759427,-0.04940076001169249
1745335990.7666304,1.23159,0.15616,0.134322,-14.6475,0.2625,-9.345,-0.3531131248173049,0.07658579362759427,-0.04940076001169249
1745335990.8467035,0.994544,0.11284999999999999,0.078202,-2.205,2.9925,13.2825,-0.3531131248173049,0.07658579362759427,-0.04940076001169249
1745335990.926793,0.626958,0.04331,0.001586,3.2900000000000005,13.352500000000001,9.625000000000002,-0.3531131248173049,0.07658579362759427,-0.04940076001169249
1745335991.0068648,0.634644,0.102114,0.017811999999999998,16.275000000000002,0.24500000000000002,3.22,-0.3531131248173049,0.07658579362759427,-0.04940076001169249
1745335991.08839,0.84973,0.158356,-0.038551999999999996,18.830000000000002,-11.410000000000002,2.1875,-0.3531131248173049,0.07658579362759427,-0.04940076001169249
1745335991.1709013,1.202554,0.11102,-0.036478,11.182500000000001,-9.2925,1.5750000000000002,-0.3531131248173049,0.07658579362759427,-0.04940076001169249
1745335991.2482789,1.40117,0.060511999999999996,0.016592,-2.4675000000000002,1.9250000000000003,0.3325,-0.3531131248173049,0.07658579362759427,-0.04940076001169249
1745335991.3301523,1.119228,-0.118828,0.110654,-20.457500000000003,12.7925,-7.0875,-0.3531131248173049,0.07658579362759427,-0.04940076001169249
1745335991.4072957,1.0346819999999999,-0.042334,0.107726,-19.39,3.9550000000000005,-8.505,-0.3531131248173049,0.07658579362759427,-0.04940076001169249
1745335991.4903376,0.721508,-0.019154,-0.023302,-23.012500000000003,11.9,-9.73,-0.3531131248173049,0.07658579362759427,-0.04940076001169249
1745335991.5674598,0.724192,0.07417599999999999,-0.075762,-8.785,0.8750000000000001,-6.4575000000000005,-0.3531131248173049,0.07658579362759427,-0.04940076001169249
1745335991.6475594,0.826916,0.073688,-0.142618,-6.195,-11.182500000000001,2.87,-0.3531131248173049,0.07658579362759427,-0.04940076001169249
1745335991.7276237,1.423862,0.15494,-0.003172,14.297500000000001,-7.7525,-2.7125000000000004,-0.3531131248173049,0.07658579362759427,-0.04940076001169249
1745335991.807729,1.338584,0.137738,0.144082,10.6575,13.860000000000001,-11.305000000000001,-0.3531131248173049,0.07658579362759427,-0.04940076001169249
1745335991.8877947,1.11935,0.1281,0.10065,11.06,9.152500000000002,2.2225,-0.3531131248173049,0.07658579362759427,-0.04940076001169249
1745335991.9678998,0.749568,0.06405,0.056364,19.880000000000003,13.405000000000001,11.4625,-0.3531131248173049,0.07658579362759427,-0.04940076001169249
1745335992.0479574,0.597678,0.059657999999999996,0.029036,27.475,6.125000000000001,7.98,-0.3531131248173049,0.07658579362759427,-0.04940076001169249
1745335992.1280565,0.727974,0.090036,0.020984,23.3975,-7.000000000000001,12.232500000000002,-0.34025138848289976,0.07307804735457468,-0.04881613563285589
1745335992.2081172,1.0723799999999999,0.114436,0.00915,16.082500000000003,-9.2575,10.517500000000002,-0.34025138848289976,0.07307804735457468,-0.04881613563285589
1745335992.2882147,1.348832,0.07649399999999999,-0.016104,7.1225000000000005,-4.515000000000001,7.3325000000000005,-0.34025138848289976,0.07307804735457468,-0.04881613563285589
1745335992.368277,1.25904,-0.04697,0.100406,-6.3875,17.255000000000003,-6.125000000000001,-0.34025138848289976,0.07307804735457468,-0.04881613563285589
1745335992.448379,1.086654,-0.09174399999999999,0.10113799999999999,-5.2675,-2.9050000000000002,-5.022500000000001,-0.34025138848289976,0.07307804735457468,-0.04881613563285589
1745335992.5284388,0.840702,0.01464,0.111752,-3.1850000000000005,-2.3625000000000003,-11.48,-0.34025138848289976,0.07307804735457468,-0.04881613563285589
1745335992.6085284,0.65514,0.049776,-0.065026,-5.7575,1.3475000000000001,-8.277500000000002,-0.34025138848289976,0.07307804735457468,-0.04881613563285589
1745335992.6885958,0.749934,0.057706,-0.114192,-0.6300000000000001,0.9975,2.1875,-0.34025138848289976,0.07307804735457468,-0.04881613563285589
1745335992.7686849,0.9526979999999999,0.015127999999999999,-0.091988,7.000000000000001,-1.5225000000000002,7.367500000000001,-0.34025138848289976,0.07307804735457468,-0.04881613563285589
1745335992.8487506,1.446798,0.148108,0.120414,19.6,9.485000000000001,-9.922500000000001,-0.34025138848289976,0.07307804735457468,-0.04881613563285589
1745335992.9288447,1.17059,0.131028,0.101992,9.6775,14.875000000000002,-10.307500000000001,-0.34025138848289976,0.07307804735457468,-0.04881613563285589
1745335993.00891,1.016504,0.10406599999999999,0.139568,11.9175,8.697500000000002,9.940000000000001,-0.34025138848289976,0.07307804735457468,-0.04881613563285589
1745335993.089005,0.70272,0.030744,0.076372,20.860000000000003,8.925,11.305000000000001,-0.34025138848289976,0.07307804735457468,-0.04881613563285589
1745335993.16907,0.630252,0.043432,0.052704,27.282500000000002,-2.1875,10.465000000000002,-0.34025138848289976,0.07307804735457468,-0.04881613563285589
1745335993.2491698,0.818742,0.073688,-0.013297999999999999,19.110000000000003,-13.825000000000001,14.805000000000001,-0.34025138848289976,0.07307804735457468,-0.04881613563285589
1745335993.3292284,1.200724,0.08649799999999999,0.009394,11.0775,-13.090000000000002,6.107500000000001,-0.34025138848289976,0.07307804735457468,-0.04881613563285589
1745335993.4093266,1.342122,0.00061,0.018422,-0.6125,-1.0325000000000002,-4.41,-0.34025138848289976,0.07307804735457468,-0.04881613563285589
1745335993.4893904,1.137162,-0.11577799999999999,0.15945399999999998,-26.407500000000002,15.9425,-12.757500000000002,-0.34025138848289976,0.07307804735457468,-0.04881613563285589
1745335993.5694866,1.067134,-0.14579,0.127978,-25.672500000000003,-3.1500000000000004,-7.455000000000001,-0.34025138848289976,0.07307804735457468,-0.04881613563285589
1745335993.6495519,0.787998,-0.033549999999999996,0.135176,-33.862500000000004,13.895000000000001,-11.392500000000002,-0.3519438760596317,0.2560654779304297,0.10669394913767904
1745335993.7296443,0.751398,0.026718,-0.030134,-38.99,3.22,-1.9600000000000002,-0.3519438760596317,0.2560654779304297,0.10669394913767904
1745335993.8097115,0.793854,0.013054,-0.103944,-31.255000000000003,-7.017500000000001,-2.6075000000000004,-0.3519438760596317,0.2560654779304297,0.10669394913767904
1745335993.8898025,1.019554,0.039284,-0.15237799999999999,-27.160000000000004,-8.8375,-1.6800000000000002,-0.3519438760596317,0.2560654779304297,0.10669394913767904
1745335993.9698675,1.357982,0.16067399999999998,0.157868,-9.345,5.705000000000001,-21.630000000000003,-0.3519438760596317,0.2560654779304297,0.10669394913767904
1745335994.0499616,1.217682,0.157258,0.155672,-5.565,-4.970000000000001,-11.9,-0.3519438760596317,0.2560654779304297,0.10669394913767904
1745335994.1300242,0.896212,0.08003199999999999,0.08064199999999999,5.617500000000001,-1.33,4.0600000000000005,-0.3519438760596317,0.2560654779304297,0.10669394913767904
1745335994.2101064,0.619394,0.061488,0.009637999999999999,10.062500000000002,0.15750000000000003,6.090000000000001,-0.3519438760596317,0.2560654779304297,0.10669394913767904
1745335994.2901704,0.668194,0.113704,0.0427,12.932500000000001,-9.030000000000001,14.665000000000001,-0.3519438760596317,0.2560654779304297,0.10669394913767904
1745335994.3702712,0.911706,0.12285399999999999,-0.00671,11.0075,-3.1500000000000004,12.057500000000001,-0.3519438760596317,0.2560654779304297,0.10669394913767904
1745335994.4503329,1.228906,0.126026,0.014884,7.7525,5.880000000000001,10.080000000000002,-0.3519438760596317,0.2560654779304297,0.10669394913767904
1745335994.5304327,1.385676,0.02257,0.037087999999999996,-5.215000000000001,11.9875,2.6250000000000004,-0.3519438760596317,0.2560654779304297,0.10669394913767904
1745335994.6105025,1.091656,-0.12139,0.126758,-19.9675,7.647500000000001,-5.3375,-0.3519438760596317,0.2560654779304297,0.10669394913767904
1745335994.6905882,0.9785619999999999,0.005978,0.161406,-11.13,-5.6000000000000005,-5.407500000000001,-0.3519438760596317,0.2560654779304297,0.10669394913767904
1745335994.7706606,0.663924,0.038796,-0.005124,-18.9175,10.412500000000001,-14.787500000000001,-0.3519438760596317,0.2560654779304297,0.10669394913767904
1745335994.8507504,0.737246,0.049409999999999996,-0.062464,-16.4675,7.630000000000001,-2.765,-0.3519438760596317,0.2560654779304297,0.10669394913767904
1745335994.9308226,0.88328,0.03233,-0.11102,-7.175000000000001,5.11,2.31,-0.3519438760596317,0.2560654779304297,0.10669394913767904
1745335995.0109112,1.17242,0.026352,0.0071979999999999995,1.4875,-7.0875,6.580000000000001,-0.3519438760596317,0.2560654779304297,0.10669394913767904
1745335995.0909817,1.23952,0.131882,0.213744,-1.0150000000000001,12.040000000000001,-16.73,-0.3519438760596317,0.2560654779304297,0.10669394913767904
1745335995.1710746,1.015528,0.170068,0.137006,2.5200000000000005,2.5025000000000004,-3.1675000000000004,-0.3367436422098802,0.10172464191756796,-0.13300204618532593
1745335995.2511468,0.765672,0.10553,0.11114199999999999,7.7700000000000005,5.250000000000001,17.535,-0.3367436422098802,0.10172464191756796,-0.13300204618532593
1745335995.3312354,0.633424,0.082594,0.067954,14.455000000000002,4.655,19.407500000000002,-0.3367436422098802,0.10172464191756796,-0.13300204618532593
1745335995.4113228,0.758474,0.115412,0.017446,18.41,-6.265000000000001,21.8575,-0.3367436422098802,0.10172464191756796,-0.13300204618532593
1745335995.491417,1.0450519999999999,0.097722,0.013297999999999999,13.982500000000002,-11.182500000000001,14.367500000000001,-0.3367436422098802,0.10172464191756796,-0.13300204618532593
1745335995.571492,1.263554,0.047458,0.06283,0.9800000000000001,-11.655000000000001,6.6850000000000005,-0.3367436422098802,0.10172464191756796,-0.13300204618532593
1745335995.6515772,1.312964,-0.015982,0.201544,-17.9725,12.477500000000001,-4.235,-0.3367436422098802,0.10172464191756796,-0.13300204618532593
1745335995.731649,1.111664,-0.12932,0.15982,-25.497500000000002,8.977500000000001,-13.2825,-0.3367436422098802,0.10172464191756796,-0.13300204618532593
1745335995.8117409,0.909632,0.026595999999999998,0.160552,-13.947500000000002,4.952500000000001,-10.71,-0.3367436422098802,0.10172464191756796,-0.13300204618532593
1745335995.8918128,0.6679499999999999,0.042334,-0.017568,-16.205000000000002,4.987500000000001,-10.412500000000001,-0.3367436422098802,0.10172464191756796,-0.13300204618532593
1745335995.9719055,0.730536,0.032452,-0.04514,-7.647500000000001,-1.8025000000000002,-1.9600000000000002,-0.3367436422098802,0.10172464191756796,-0.13300204618532593
1745335996.051977,0.903532,0.00244,-0.072102,-0.22750000000000004,-7.3500000000000005,5.565,-0.3367436422098802,0.10172464191756796,-0.13300204618532593
1745335996.1320608,1.251232,0.017934,0.031354,5.74,-13.370000000000001,13.037500000000001,-0.3367436422098802,0.10172464191756796,-0.13300204618532593
1745335996.2140465,1.2226839999999999,0.105164,0.218868,2.4850000000000003,4.550000000000001,-12.8625,-0.3367436422098802,0.10172464191756796,-0.13300204618532593
1745335996.2936583,1.077748,0.093574,0.177876,12.635000000000002,-1.6975000000000002,5.215000000000001,-0.3367436422098802,0.10172464191756796,-0.13300204618532593
1745335996.3752832,0.688568,0.035623999999999996,0.071858,19.9675,7.1225000000000005,8.8025,-0.3367436422098802,0.10172464191756796,-0.13300204618532593
1745335996.4523938,0.5934079999999999,0.060878,0.020374,22.4525,3.1325000000000003,13.650000000000002,-0.3367436422098802,0.10172464191756796,-0.13300204618532593
1745335996.538389,0.787144,0.084302,0.072346,17.587500000000002,-6.2125,16.975,-0.3367436422098802,0.10172464191756796,-0.13300204618532593
1745335996.6125534,1.1350879999999999,0.084302,0.033549999999999996,12.285000000000002,-9.957500000000001,9.082500000000001,-0.3367436422098802,0.10172464191756796,-0.13300204618532593
1745335996.6926582,1.38836,-0.024156,0.077714,-7.140000000000001,-2.6075000000000004,3.0625000000000004,-0.33440514469453375,0.11341712949429991,-0.0944168371821105
1745335996.7727308,1.202432,-0.102724,0.193492,-25.602500000000003,16.310000000000002,-7.140000000000001,-0.33440514469453375,0.11341712949429991,-0.0944168371821105
1745335996.8528135,1.102514,-0.09589199999999999,0.179096,-13.615000000000002,-1.9075000000000002,-9.485000000000001,-0.33440514469453375,0.11341712949429991,-0.0944168371821105
1745335996.9328737,0.7622559999999999,0.001098,0.121268,-9.73,0.7525000000000001,-14.052500000000002,-0.33440514469453375,0.11341712949429991,-0.0944168371821105
1745335997.0129778,0.6642899999999999,0.046604,-0.027572,-19.267500000000002,-0.805,-10.5525,-0.33440514469453375,0.11341712949429991,-0.0944168371821105
1745335997.093037,0.775188,0.022082,-0.07869,-15.365000000000002,0.56,0.0175,-0.33440514469453375,0.11341712949429991,-0.0944168371821105
1745335997.173139,1.022848,0.02318,-0.081008,-6.2475000000000005,-3.5525,6.982500000000001,-0.33440514469453375,0.11341712949429991,-0.0944168371821105
1745335997.253198,1.321626,0.071126,0.062098,8.3125,-5.0575,2.3975000000000004,-0.33440514469453375,0.11341712949429991,-0.0944168371821105
1745335997.3332956,1.305156,0.132004,0.17019,8.3475,16.345000000000002,-16.082500000000003,-0.33440514469453375,0.11341712949429991,-0.0944168371821105
1745335997.4133759,0.941474,0.10797,0.171898,21.700000000000003,-3.0275000000000003,7.7525,-0.33440514469453375,0.11341712949429991,-0.0944168371821105
1745335997.4934654,0.662338,0.043066,0.068198,25.375000000000004,1.155,8.4175,-0.33440514469453375,0.11341712949429991,-0.0944168371821105
1745335997.5735223,0.67222,0.07869,0.053314,29.295,-3.5525,14.717500000000001,-0.33440514469453375,0.11341712949429991,-0.0944168371821105
1745335997.65362,0.885354,0.094184,0.014274,22.6975,-7.945000000000001,15.260000000000002,-0.33440514469453375,0.11341712949429991,-0.0944168371821105
1745335997.7336671,1.16327,0.04636,0.041846,7.7875000000000005,-5.11,9.625000000000002,-0.33440514469453375,0.11341712949429991,-0.0944168371821105
1745335997.8137546,1.4666839999999999,0.005124,0.150548,-11.165000000000001,7.3500000000000005,10.062500000000002,-0.33440514469453375,0.11341712949429991,-0.0944168371821105
1745335997.8938105,1.120204,-0.160796,0.176168,-23.992500000000003,11.095,-7.315,-0.33440514469453375,0.11341712949429991,-0.0944168371821105
1745335997.9738991,0.953552,-0.036478,0.147864,-5.477500000000001,-6.090000000000001,-13.527500000000002,-0.33440514469453375,0.11341712949429991,-0.0944168371821105
1745335998.0539572,0.696864,0.007808,0.067954,-13.615000000000002,6.527500000000001,-19.075000000000003,-0.33440514469453375,0.11341712949429991,-0.0944168371821105
1745335998.1340475,0.729926,0.026108,-0.033306,-10.867500000000001,0.49000000000000005,-4.7075000000000005,-0.33440514469453375,0.11341712949429991,-0.0944168371821105
1745335998.2141032,0.8565619999999999,0.006222,-0.08820599999999999,3.4125000000000005,0.1925,1.5225000000000002,-0.34726688102893893,0.0923706518561824,-0.10990938322128033
1745335998.2941892,1.120814,-0.019398,-0.005612,9.940000000000001,-0.805,8.277500000000002,-0.34726688102893893,0.0923706518561824,-0.10990938322128033
1745335998.37426,1.341634,0.106018,-0.002562,10.255,4.077500000000001,6.9125000000000005,-0.34726688102893893,0.0923706518561824,-0.10990938322128033
1745335998.4543571,1.391776,0.13298,0.264618,-6.4225,8.0325,-14.770000000000001,-0.34726688102893893,0.0923706518561824,-0.10990938322128033
1745335998.5344238,0.707234,0.113582,0.078812,19.005000000000003,-7.192500000000001,-7.315,-0.34726688102893893,0.0923706518561824,-0.10990938322128033
1745335998.6145415,0.613416,0.024888,0.05551,19.67,-1.1725,-6.090000000000001,-0.34726688102893893,0.0923706518561824,-0.10990938322128033
1745335998.6945841,0.745542,0.135542,0.049409999999999996,29.925000000000004,-14.682500000000001,10.675,-0.34726688102893893,0.0923706518561824,-0.10990938322128033
1745335998.7746797,1.072746,0.141398,-0.032085999999999996,22.277500000000003,-19.145000000000003,12.775,-0.34726688102893893,0.0923706518561824,-0.10990938322128033
1745335998.8547459,1.308694,0.09211,-0.017568,-3.1500000000000004,-8.277500000000002,-1.2600000000000002,-0.34726688102893893,0.0923706518561824,-0.10990938322128033
1745335998.9348373,1.182424,-0.036966,0.153354,-28.245,8.277500000000002,-7.035000000000001,-0.34726688102893893,0.0923706518561824,-0.10990938322128033
1745335999.0149062,1.106662,-0.081862,0.131394,-28.052500000000002,-6.142500000000001,-0.5950000000000001,-0.34726688102893893,0.0923706518561824,-0.10990938322128033
1745335999.094999,0.8504619999999999,0.038674,0.077836,-28.122500000000002,8.260000000000002,-7.665000000000001,-0.34726688102893893,0.0923706518561824,-0.10990938322128033
1745335999.1750727,0.69967,0.05856,-0.05551,-32.900000000000006,11.252500000000001,-3.0975,-0.34726688102893893,0.0923706518561824,-0.10990938322128033
1745335999.2551615,0.777384,0.079056,-0.096868,-20.615000000000002,7.2975,2.0475000000000003,-0.34726688102893893,0.0923706518561824,-0.10990938322128033
1745335999.335228,0.960872,0.0549,-0.172508,-5.460000000000001,3.8500000000000005,2.3975000000000004,-0.34726688102893893,0.0923706518561824,-0.10990938322128033
1745335999.415323,1.282586,0.07710399999999999,0.017079999999999998,6.6325,-11.48,-1.1725,-0.34726688102893893,0.0923706518561824,-0.10990938322128033
1745335999.4953911,1.3888479999999999,0.198616,0.079178,6.720000000000001,1.715,-15.995000000000001,-0.34726688102893893,0.0923706518561824,-0.10990938322128033
1745335999.5754871,1.1910859999999999,0.147864,0.103944,7.315,-3.9550000000000005,-16.2925,-0.34726688102893893,0.0923706518561824,-0.10990938322128033
1745335999.6555533,0.649528,0.07063799999999999,0.042822,19.7925,8.680000000000001,12.775,-0.34726688102893893,0.0923706518561824,-0.10990938322128033
1745335999.735646,0.64477,0.13176,0.009394,22.207500000000003,8.015,13.072500000000002,-0.3572054954691611,0.0707395498392283,-0.0923706518561824
1745335999.81572,0.836676,0.156404,-0.017568,26.285000000000004,-3.7275000000000005,9.555000000000001,-0.3572054954691611,0.0707395498392283,-0.0923706518561824
1745335999.8958185,1.171444,0.127978,0.005246,21.840000000000003,-2.4675000000000002,-5.705000000000001,-0.3572054954691611,0.0707395498392283,-0.0923706518561824
1745335999.9758987,1.37372,0.023424,0.031598,-5.1275,9.467500000000001,-4.7250000000000005,-0.3572054954691611,0.0707395498392283,-0.0923706518561824
1745336000.055971,1.13948,-0.047092,0.15298799999999999,-25.1125,17.0625,8.435,-0.3572054954691611,0.0707395498392283,-0.0923706518561824
1745336000.1360247,1.117886,0.014274,0.191418,-16.782500000000002,-6.107500000000001,10.045000000000002,-0.3572054954691611,0.0707395498392283,-0.0923706518561824
1745336000.2160995,0.7333419999999999,0.067222,0.045994,-13.842500000000001,-0.31500000000000006,-13.947500000000002,-0.3572054954691611,0.0707395498392283,-0.0923706518561824
1745336000.2961576,0.692472,0.08418,-0.095648,-13.020000000000001,0.14,-11.9,-0.3572054954691611,0.0707395498392283,-0.0923706518561824
1745336000.3762453,0.823744,0.058804,-0.165188,3.325,-11.812500000000002,0.4025,-0.3572054954691611,0.0707395498392283,-0.0923706518561824
1745336000.4563005,1.012722,0.028426,-0.114436,18.1125,-19.425,11.200000000000001,-0.3572054954691611,0.0707395498392283,-0.0923706518561824
1745336000.5363848,1.366766,0.046604,-0.041479999999999996,28.297500000000003,-17.692500000000003,13.195000000000002,-0.3572054954691611,0.0707395498392283,-0.0923706518561824
1745336000.6164384,1.373842,0.110776,0.124806,20.7725,0.4025,-9.432500000000001,-0.3572054954691611,0.0707395498392283,-0.0923706518561824
1745336000.6965115,1.23159,0.182512,0.117242,8.662500000000001,-13.475000000000001,-3.7450000000000006,-0.3572054954691611,0.0707395498392283,-0.0923706518561824
1745336000.776589,0.548634,0.12139,-0.05185,11.270000000000001,13.160000000000002,-5.407500000000001,-0.3572054954691611,0.0707395498392283,-0.0923706518561824
1745336000.8566713,0.65148,0.130418,-0.020618,4.6725,-8.3475,1.8550000000000002,-0.3572054954691611,0.0707395498392283,-0.0923706518561824
1745336000.9367256,0.9095099999999999,0.11651,-0.07442,0.6475000000000001,-11.655000000000001,4.41,-0.3572054954691611,0.0707395498392283,-0.0923706518561824
1745336001.0168014,1.2330539999999999,0.120902,-0.07991,-6.0375000000000005,-7.927500000000001,9.887500000000001,-0.3572054954691611,0.0707395498392283,-0.0923706518561824
1745336001.096854,1.36701,0.05734,-0.07076,-17.71,-1.4875,9.38,-0.3572054954691611,0.0707395498392283,-0.0923706518561824
1745336001.1769285,1.1454579999999999,-0.048556,0.069174,-33.46,9.3625,8.715000000000002,-0.3572054954691611,0.0707395498392283,-0.0923706518561824
1745336001.256982,1.048956,-0.04636,0.091866,-29.452500000000004,2.555,3.2725000000000004,-0.36071324174218067,0.07717041800643087,-0.06547793042969892
1745336001.3370502,0.733586,0.014029999999999999,-0.017811999999999998,-27.0025,16.082500000000003,-9.975000000000001,-0.36071324174218067,0.07717041800643087,-0.06547793042969892
1745336001.418586,0.671244,0.051362,-0.119072,-23.485000000000003,11.9525,-1.9250000000000003,-0.36071324174218067,0.07717041800643087,-0.06547793042969892
1745336001.4972312,0.813252,0.028059999999999998,-0.126636,-9.607500000000002,0.5075000000000001,2.6950000000000003,-0.36071324174218067,0.07717041800643087,-0.06547793042969892
1745336001.5772736,1.020408,0.026718,-0.11712,0.0175,-5.1625000000000005,1.8025000000000002,-0.36071324174218067,0.07717041800643087,-0.06547793042969892
1745336001.6573584,1.335168,0.081984,-0.03111,8.4875,-5.880000000000001,-4.445,-0.36071324174218067,0.07717041800643087,-0.06547793042969892
1745336001.7403784,1.39141,0.166164,0.15616,0.47250000000000003,11.0425,-18.3225,-0.36071324174218067,0.07717041800643087,-0.06547793042969892
1745336001.8175166,1.2354939999999999,0.17446,0.10113799999999999,-3.5525,4.6025,-7.402500000000001,-0.36071324174218067,0.07717041800643087,-0.06547793042969892
1745336001.900535,0.56791,0.035746,-0.002928,17.360000000000003,11.4975,12.582500000000001,-0.36071324174218067,0.07717041800643087,-0.06547793042969892
1745336001.9776719,0.6335459999999999,0.100772,-0.015006,17.4475,0.22750000000000004,22.6625,-0.36071324174218067,0.07717041800643087,-0.06547793042969892
1745336002.0606854,0.952942,0.115046,0.013176,3.8850000000000002,-6.1775,14.402500000000002,-0.36071324174218067,0.07717041800643087,-0.06547793042969892
1745336002.137831,1.21268,0.12139,0.0,-2.5200000000000005,-6.0375000000000005,2.7825,-0.36071324174218067,0.07717041800643087,-0.06547793042969892
1745336002.220846,1.366522,0.0026839999999999998,0.147986,-12.845,19.0575,-1.4000000000000001,-0.36071324174218067,0.07717041800643087,-0.06547793042969892
1745336002.297988,1.203164,-0.11809599999999999,0.203618,-8.645000000000001,18.742500000000003,-3.8325000000000005,-0.36071324174218067,0.07717041800643087,-0.06547793042969892
1745336002.381012,0.95526,0.0013419999999999999,0.190198,6.6675,14.805000000000001,-10.972500000000002,-0.36071324174218067,0.07717041800643087,-0.06547793042969892
1745336002.4581447,0.669902,0.043432,0.01464,-6.352500000000001,9.887500000000001,-14.822500000000002,-0.36071324174218067,0.07717041800643087,-0.06547793042969892
1745336002.5412118,0.690276,0.024522,-0.053314,-11.235000000000001,-5.1275,-5.1450000000000005,-0.36071324174218067,0.07717041800643087,-0.06547793042969892
1745336002.6183016,0.874374,0.02135,-0.07381,-6.580000000000001,-11.585,-1.6450000000000002,-0.36071324174218067,0.07717041800643087,-0.06547793042969892
1745336002.6983938,1.178398,0.047335999999999996,0.069784,2.2575000000000003,-13.265,4.112500000000001,-0.36071324174218067,0.07717041800643087,-0.06547793042969892
1745336002.7784479,1.451556,0.139934,0.195932,6.8775,7.3500000000000005,-12.8625,-0.371821104940076,0.06255480853551593,-0.11750950014615609
1745336002.8585458,1.1813259999999999,0.165066,0.158356,-2.5725000000000002,15.05,-13.7375,-0.371821104940076,0.06255480853551593,-0.11750950014615609
1745336002.9386113,1.10837,0.128832,0.178974,-6.44,4.550000000000001,4.165,-0.371821104940076,0.06255480853551593,-0.11750950014615609
1745336003.0187063,0.74298,0.092232,0.037698,19.040000000000003,-2.0125,25.515000000000004,-0.371821104940076,0.06255480853551593,-0.11750950014615609
1745336003.098767,0.754814,0.108458,0.01342,14.175,-12.285000000000002,27.580000000000002,-0.371821104940076,0.06255480853551593,-0.11750950014615609
1745336003.178869,1.1424079999999999,0.10431,0.060756,-1.2075,-16.345000000000002,7.245000000000001,-0.371821104940076,0.06255480853551593,-0.11750950014615609
1745336003.258926,1.439112,0.011224,0.134932,-20.160000000000004,-1.0325000000000002,-2.6075000000000004,-0.371821104940076,0.06255480853551593,-0.11750950014615609
1745336003.3390234,1.14314,-0.08588799999999999,0.237534,-27.895000000000003,22.470000000000002,-9.012500000000001,-0.371821104940076,0.06255480853551593,-0.11750950014615609
1745336003.4190845,0.997228,-0.157746,0.12566,-6.4225,4.2,-3.7275000000000005,-0.371821104940076,0.06255480853551593,-0.11750950014615609
1745336003.4991817,0.737856,-0.011224,0.170312,3.8850000000000002,14.332500000000001,-10.465000000000002,-0.371821104940076,0.06255480853551593,-0.11750950014615609
1745336003.579238,0.720776,-0.008662,-0.000732,-12.670000000000002,5.11,-10.5875,-0.371821104940076,0.06255480853551593,-0.11750950014615609
1745336003.6593325,0.819596,-0.010003999999999999,-0.084302,-13.6675,-5.180000000000001,-8.8725,-0.371821104940076,0.06255480853551593,-0.11750950014615609
1745336003.7393842,1.104222,0.040504,-0.029646,-10.745000000000001,-17.220000000000002,-0.8925000000000001,-0.371821104940076,0.06255480853551593,-0.11750950014615609
1745336003.8194802,1.313208,0.10492,0.021471999999999998,-0.21000000000000002,-17.990000000000002,-8.47,-0.371821104940076,0.06255480853551593,-0.11750950014615609
1745336003.8995361,1.308816,0.132614,0.227286,-8.732500000000002,3.9200000000000004,-27.0375,-0.371821104940076,0.06255480853551593,-0.11750950014615609
1745336003.979619,1.175958,0.17446,0.17324,1.2600000000000002,-4.9350000000000005,-6.6325,-0.371821104940076,0.06255480853551593,-0.11750950014615609
1745336004.0596688,0.867298,0.102968,0.133468,11.025,11.9175,14.945000000000002,-0.371821104940076,0.06255480853551593,-0.11750950014615609
1745336004.1397552,0.60634,0.060634,0.023058,14.070000000000002,3.1675000000000004,19.9325,-0.371821104940076,0.06255480853551593,-0.11750950014615609
1745336004.2198071,1.014308,0.163968,0.049288,10.99,-3.3425000000000002,8.540000000000001,-0.371821104940076,0.06255480853551593,-0.11750950014615609
1745336004.2998888,1.28832,0.128466,0.068076,5.1450000000000005,-1.0150000000000001,-2.3975000000000004,-0.3665594855305466,0.092955276235019,-0.1359251680795089
1745336004.3799515,1.327238,0.01098,0.26156799999999997,-5.617500000000001,17.71,-8.4875,-0.3665594855305466,0.092955276235019,-0.1359251680795089
1745336004.4600372,1.086898,-0.096136,0.20996199999999998,10.482500000000002,4.2525,-2.8350000000000004,-0.3665594855305466,0.092955276235019,-0.1359251680795089
1745336004.5400827,0.879742,-0.005124,0.219356,25.69,6.9125000000000005,-10.342500000000001,-0.3665594855305466,0.092955276235019,-0.1359251680795089
1745336004.6201696,0.640012,0.038551999999999996,0.10467599999999999,14.787500000000001,7.210000000000001,-15.277500000000002,-0.3665594855305466,0.092955276235019,-0.1359251680795089
1745336004.700232,0.734196,0.02928,-0.00122,-9.7825,-2.6425,-9.2225,-0.3665594855305466,0.092955276235019,-0.1359251680795089
1745336004.7803197,0.929396,-0.02196,-0.04331,-19.9675,-9.030000000000001,-3.9025000000000003,-0.3665594855305466,0.092955276235019,-0.1359251680795089
1745336004.8603861,1.2251239999999999,0.09759999999999999,0.026718,-6.6325,-16.555000000000003,0.43750000000000006,-0.3665594855305466,0.092955276235019,-0.1359251680795089
1745336004.9404736,1.38287,0.218136,0.216672,-8.785,0.7350000000000001,-17.220000000000002,-0.3665594855305466,0.092955276235019,-0.1359251680795089
1745336005.020537,1.215852,0.182756,0.223748,-14.000000000000002,-1.12,-15.767500000000002,-0.3665594855305466,0.092955276235019,-0.1359251680795089
1745336005.1006303,1.066158,0.25790799999999997,0.231312,-1.5925000000000002,2.6775,9.502500000000001,-0.3665594855305466,0.092955276235019,-0.1359251680795089
1745336005.180692,0.654286,0.113582,0.17019,8.9425,14.21,12.8275,-0.3665594855305466,0.092955276235019,-0.1359251680795089
1745336005.260783,0.5885279999999999,0.091866,0.034038,11.690000000000001,0.6125,22.680000000000003,-0.3665594855305466,0.092955276235019,-0.1359251680795089
1745336005.3408477,1.156072,0.16104,0.100894,-6.930000000000001,-12.8625,13.912500000000001,-0.3665594855305466,0.092955276235019,-0.1359251680795089
1745336005.420942,1.433622,0.096136,0.147864,-25.952500000000004,7.315,7.682500000000001,-0.3665594855305466,0.092955276235019,-0.1359251680795089
1745336005.5010054,1.111664,-0.05124,0.243512,-25.200000000000003,20.580000000000002,-4.41,-0.3665594855305466,0.092955276235019,-0.1359251680795089
1745336005.5810978,1.006256,-0.02623,0.23216599999999998,-6.4225,-3.3775000000000004,-12.197500000000002,-0.3665594855305466,0.092955276235019,-0.1359251680795089
1745336005.661163,0.727974,0.02257,0.13176,-13.160000000000002,5.775,-21.7175,-0.3665594855305466,0.092955276235019,-0.1359251680795089
1745336005.7412524,0.700036,0.074664,0.002928,-12.547500000000001,-3.5525,-8.207500000000001,-0.3665594855305466,0.092955276235019,-0.1359251680795089
1745336005.8213139,0.796904,0.03233,-0.022326,-15.872500000000002,-9.082500000000001,2.8525000000000005,-0.40105232388190587,0.1373867290266004,-0.14966384098216895
1745336005.901412,1.171932,-0.057828,-0.051484,-1.1900000000000002,-19.950000000000003,18.55,-0.40105232388190587,0.1373867290266004,-0.14966384098216895
1745336005.9814703,1.354322,0.113582,0.046116,28.210000000000004,-16.852500000000003,9.992500000000001,-0.40105232388190587,0.1373867290266004,-0.14966384098216895
1745336006.0615556,1.256112,0.137006,0.264984,10.675,13.7375,-17.3775,-0.40105232388190587,0.1373867290266004,-0.14966384098216895
1745336006.1416252,1.105442,0.199226,0.19519999999999998,9.887500000000001,2.7475,0.8225000000000001,-0.40105232388190587,0.1373867290266004,-0.14966384098216895
1745336006.2217085,0.8252079999999999,0.07991,0.155916,13.965000000000002,14.717500000000001,13.912500000000001,-0.40105232388190587,0.1373867290266004,-0.14966384098216895
1745336006.3017747,0.614026,0.054046,0.027327999999999998,22.277500000000003,16.117500000000003,10.832500000000001,-0.40105232388190587,0.1373867290266004,-0.14966384098216895
1745336006.3818636,0.7333419999999999,0.10187,0.033794,24.692500000000003,-3.5700000000000003,18.76,-0.40105232388190587,0.1373867290266004,-0.14966384098216895
1745336006.4619365,1.275876,0.051606,0.043676,1.6975000000000002,-14.945000000000002,10.010000000000002,-0.40105232388190587,0.1373867290266004,-0.14966384098216895
1745336006.5434787,1.2713619999999999,-0.012688,0.244244,-22.242500000000003,11.0425,-0.035,-0.40105232388190587,0.1373867290266004,-0.14966384098216895
1745336006.6221082,1.169004,-0.120902,0.20410599999999998,-10.920000000000002,-7.682500000000001,-4.41,-0.40105232388190587,0.1373867290266004,-0.14966384098216895
1745336006.702196,0.893528,0.032452,0.21581799999999998,7.192500000000001,2.5900000000000003,-10.0975,-0.40105232388190587,0.1373867290266004,-0.14966384098216895
1745336006.782284,0.668194,0.07381,0.044896,-5.7575,5.075,-10.1675,-0.40105232388190587,0.1373867290266004,-0.14966384098216895
1745336006.862345,0.7147979999999999,0.050142,-0.015372,-10.5525,-1.995,1.0675000000000001,-0.40105232388190587,0.1373867290266004,-0.14966384098216895
1745336006.9424121,0.886208,-0.01464,-0.04575,2.9925,-2.975,5.390000000000001,-0.40105232388190587,0.1373867290266004,-0.14966384098216895
1745336007.0225196,1.200724,0.029646,-0.0057339999999999995,27.44,-10.517500000000002,10.115,-0.40105232388190587,0.1373867290266004,-0.14966384098216895
1745336007.1025648,1.4216659999999999,0.114314,0.162504,25.270000000000003,10.080000000000002,-11.025,-0.40105232388190587,0.1373867290266004,-0.14966384098216895
1745336007.1826541,1.259284,0.178608,0.270718,17.71,9.975000000000001,-12.582500000000001,-0.40105232388190587,0.1373867290266004,-0.14966384098216895
1745336007.2627196,1.077504,0.143472,0.216184,22.802500000000002,-0.24500000000000002,12.705000000000002,-0.40105232388190587,0.1373867290266004,-0.14966384098216895
1745336007.3428164,0.659288,0.08649799999999999,0.082594,25.725,11.305000000000001,10.342500000000001,-0.4484068985676703,0.1853259280912014,-0.12218649517684887
1745336007.422876,0.60817,0.079788,0.076128,25.462500000000002,0.5775,10.745000000000001,-0.4484068985676703,0.1853259280912014,-0.12218649517684887
1745336007.5029674,0.8011739999999999,0.107116,0.09820999999999999,25.3225,-9.2575,12.600000000000001,-0.4484068985676703,0.1853259280912014,-0.12218649517684887
1745336007.5830317,1.361032,0.050386,0.089548,1.1375000000000002,-3.2025,-2.5375,-0.4484068985676703,0.1853259280912014,-0.12218649517684887
1745336007.663113,1.220366,-0.033184,0.259982,-15.9075,10.937500000000002,-1.8550000000000002,-0.4484068985676703,0.1853259280912014,-0.12218649517684887
1745336007.7452826,1.04188,-0.17116599999999998,0.217648,-10.832500000000001,-2.6950000000000003,-9.1875,-0.4484068985676703,0.1853259280912014,-0.12218649517684887
1745336007.823266,0.80398,0.072468,0.262178,-10.99,7.822500000000001,-19.075000000000003,-0.4484068985676703,0.1853259280912014,-0.12218649517684887
1745336007.904731,0.677588,0.075518,0.03233,-26.652500000000003,0.10500000000000001,-12.600000000000001,-0.4484068985676703,0.1853259280912014,-0.12218649517684887
1745336007.9834201,0.713822,0.030255999999999998,-0.008905999999999999,-18.445,-2.6775,-8.190000000000001,-0.4484068985676703,0.1853259280912014,-0.12218649517684887
1745336008.0641403,0.9934459999999999,0.051606,-0.027816,-4.9175,-0.45500000000000007,0.1925,-0.4484068985676703,0.1853259280912014,-0.12218649517684887
1745336008.1435761,1.294908,0.098332,-0.026352,5.5475,-3.6225000000000005,-5.95,-0.4484068985676703,0.1853259280912014,-0.12218649517684887
1745336008.2236462,1.358226,0.19983599999999999,0.17763199999999998,10.902500000000002,6.300000000000001,-24.3075,-0.4484068985676703,0.1853259280912014,-0.12218649517684887
1745336008.3037276,1.163392,0.21777,0.245586,6.825000000000001,-3.22,-6.0025,-0.4484068985676703,0.1853259280912014,-0.12218649517684887
1745336008.383794,0.996862,0.160796,0.21984399999999998,8.8025,4.2875000000000005,18.375,-0.4484068985676703,0.1853259280912014,-0.12218649517684887
1745336008.4638805,0.628544,0.110044,0.12224399999999999,17.1675,18.340000000000003,18.62,-0.4484068985676703,0.1853259280912014,-0.12218649517684887
1745336008.5439496,0.657092,0.12895399999999999,0.12993,24.675,11.55,16.082500000000003,-0.4484068985676703,0.1853259280912014,-0.12218649517684887
1745336008.62403,0.890478,0.17446,0.062586,25.952500000000004,0.052500000000000005,7.227500000000001,-0.4484068985676703,0.1853259280912014,-0.12218649517684887
1745336008.7070596,1.394948,0.08052,0.180926,-5.005000000000001,-6.492500000000001,-11.9875,-0.4484068985676703,0.1853259280912014,-0.12218649517684887
1745336008.7841816,1.0796999999999999,-0.005856,0.24827,-10.500000000000002,8.5225,-5.460000000000001,-0.4484068985676703,0.1853259280912014,-0.12218649517684887
1745336008.8672094,1.02968,0.0042699999999999995,0.234728,-2.7300000000000004,-1.7675,3.4650000000000003,-0.374744226834259,0.04209295527623502,-0.12540192926045016
1745336008.9443283,0.733464,0.01159,0.264618,-9.537500000000001,10.885000000000002,-9.940000000000001,-0.374744226834259,0.04209295527623502,-0.12540192926045016
1745336009.0273466,0.707966,0.066246,0.050873999999999996,-20.212500000000002,2.975,-10.360000000000001,-0.374744226834259,0.04209295527623502,-0.12540192926045016
1745336009.1044686,0.7881199999999999,0.00244,0.002196,-23.345000000000002,-2.1175,-9.852500000000001,-0.374744226834259,0.04209295527623502,-0.12540192926045016
1745336009.1875126,1.067622,0.069662,0.0026839999999999998,-17.745,-14.717500000000001,7.315,-0.374744226834259,0.04209295527623502,-0.12540192926045016
1745336009.2646234,1.246596,0.141154,0.041968,-5.2675,-12.075000000000001,4.83,-0.374744226834259,0.04209295527623502,-0.12540192926045016
1745336009.3476686,1.361886,0.191418,0.242536,-3.1325000000000003,7.385000000000001,-12.145000000000001,-0.374744226834259,0.04209295527623502,-0.12540192926045016
1745336009.4247909,1.14619,0.199226,0.24766,-5.3375,-4.8825,0.035,-0.374744226834259,0.04209295527623502,-0.12540192926045016
1745336009.507818,0.917196,0.155428,0.228506,-5.197500000000001,3.0975,11.9,-0.374744226834259,0.04209295527623502,-0.12540192926045016
1745336009.5849345,0.644038,0.096624,0.083692,0.43750000000000006,12.4075,9.940000000000001,-0.374744226834259,0.04209295527623502,-0.12540192926045016
1745336009.665021,0.659288,0.12285399999999999,0.085156,9.2925,2.3800000000000003,18.567500000000003,-0.374744226834259,0.04209295527623502,-0.12540192926045016
1745336009.7450824,0.92293,0.135176,0.081496,7.682500000000001,-5.460000000000001,17.4825,-0.374744226834259,0.04209295527623502,-0.12540192926045016
1745336009.825182,1.409222,0.048922,0.22447999999999999,-26.250000000000004,-1.435,1.435,-0.374744226834259,0.04209295527623502,-0.12540192926045016
1745336009.9052408,1.035536,-0.115412,0.230458,-36.540000000000006,5.9675,-9.73,-0.374744226834259,0.04209295527623502,-0.12540192926045016
1745336009.9853384,1.03151,-0.00671,0.253516,-11.5675,-5.3375,-10.325000000000001,-0.374744226834259,0.04209295527623502,-0.12540192926045016
1745336010.065395,0.721508,0.057706,0.066734,-11.672500000000001,4.515000000000001,-21.595000000000002,-0.374744226834259,0.04209295527623502,-0.12540192926045016
1745336010.1454935,0.711016,0.04636,0.0017079999999999999,-12.617500000000001,-1.1375000000000002,-11.935,-0.374744226834259,0.04209295527623502,-0.12540192926045016
1745336010.225559,0.837896,0.04331,-0.012444,-3.6050000000000004,-4.2,-6.9125000000000005,-0.374744226834259,0.04209295527623502,-0.12540192926045016
1745336010.3056533,1.141676,0.030866,-0.010614,0.8225000000000001,-12.355,2.7825,-0.374744226834259,0.04209295527623502,-0.12540192926045016
1745336010.3857198,1.38653,0.13078399999999998,0.058193999999999996,2.1525000000000003,-17.902500000000003,-3.9200000000000004,-0.37942122186495175,0.04092370651856182,-0.10874013446360713
1745336010.4658158,1.337242,0.17885199999999998,0.288164,-9.275,-7.2975,-15.417500000000002,-0.37942122186495175,0.04092370651856182,-0.10874013446360713
1745336010.545878,1.075552,0.15555,0.240584,-3.0450000000000004,-7.192500000000001,1.8900000000000001,-0.37942122186495175,0.04092370651856182,-0.10874013446360713
1745336010.6259706,0.73566,0.08662,0.12102399999999999,6.825000000000001,4.48,18.970000000000002,-0.37942122186495175,0.04092370651856182,-0.10874013446360713
1745336010.706032,0.598898,0.075884,0.07137,14.070000000000002,4.077500000000001,25.007500000000004,-0.37942122186495175,0.04092370651856182,-0.10874013446360713
1745336010.7861242,0.741394,0.111996,0.06466,12.775,-5.897500000000001,19.635,-0.37942122186495175,0.04092370651856182,-0.10874013446360713
1745336010.8661911,1.040904,0.107726,0.0,2.24,-10.360000000000001,8.172500000000001,-0.37942122186495175,0.04092370651856182,-0.10874013446360713
1745336010.946282,1.324432,-0.011224,0.170068,-26.53,1.3825,5.407500000000001,-0.37942122186495175,0.04092370651856182,-0.10874013446360713
1745336011.0263436,1.116422,-0.165798,0.18788,-24.080000000000002,4.83,-2.8175000000000003,-0.37942122186495175,0.04092370651856182,-0.10874013446360713
1745336011.1064343,0.900482,0.008173999999999999,0.127002,-7.630000000000001,3.3950000000000005,-10.290000000000001,-0.37942122186495175,0.04092370651856182,-0.10874013446360713
1745336011.1865115,0.6667299999999999,0.030255999999999998,-0.002074,-15.085,8.697500000000002,-12.040000000000001,-0.37942122186495175,0.04092370651856182,-0.10874013446360713
1745336011.2665896,0.686372,0.058438,-0.014274,-8.3475,8.33,-7.490000000000001,-0.37942122186495175,0.04092370651856182,-0.10874013446360713
1745336011.346664,0.8638819999999999,-0.023058,-0.044164,-1.995,4.812500000000001,0.9275000000000001,-0.37942122186495175,0.04092370651856182,-0.10874013446360713
1745336011.4267566,1.294786,0.025863999999999998,-0.041236,15.452500000000002,-14.700000000000001,19.512500000000003,-0.37942122186495175,0.04092370651856182,-0.10874013446360713
1745336011.5068195,1.369694,0.13237,0.125904,19.180000000000003,3.43,-6.597500000000001,-0.37942122186495175,0.04092370651856182,-0.10874013446360713
1745336011.588356,1.20719,0.12627,0.240706,8.575000000000001,21.927500000000002,-23.082500000000003,-0.37942122186495175,0.04092370651856182,-0.10874013446360713
1745336011.668433,1.099464,0.10992199999999999,0.235704,8.995000000000001,11.742500000000001,1.33,-0.37942122186495175,0.04092370651856182,-0.10874013446360713
1745336011.747073,0.7518859999999999,0.061975999999999996,0.149206,17.955000000000002,13.387500000000001,11.812500000000002,-0.37942122186495175,0.04092370651856182,-0.10874013446360713
1745336011.8271492,0.608414,0.050142,0.078446,21.945000000000004,4.8825,15.872500000000002,-0.37942122186495175,0.04092370651856182,-0.10874013446360713
1745336011.9072359,0.76128,0.120658,0.06709999999999999,15.0325,-8.575000000000001,18.585,-0.3490207541654487,0.07132417421806489,-0.13650979245834552
1745336011.9873,1.075186,0.10675,0.061244,4.83,-8.505,9.887500000000001,-0.3490207541654487,0.07132417421806489,-0.13650979245834552
1745336012.0673826,1.258186,-0.042578,0.22143,-14.6475,7.7700000000000005,1.155,-0.3490207541654487,0.07132417421806489,-0.13650979245834552
1745336012.1474452,1.093608,-0.150914,0.18056,-13.142500000000002,-7.402500000000001,-8.645000000000001,-0.3490207541654487,0.07132417421806489,-0.13650979245834552
1745336012.227527,0.859368,-0.01342,0.24046199999999998,0.9800000000000001,0.28,-18.025000000000002,-0.3490207541654487,0.07132417421806489,-0.13650979245834552
1745336012.307599,0.68991,0.05063,0.04453,-16.275000000000002,0.22750000000000004,-16.275000000000002,-0.3490207541654487,0.07132417421806489,-0.13650979245834552
1745336012.3876846,0.70943,0.015738,-0.00488,-13.912500000000001,-3.0975,-9.3625,-0.3490207541654487,0.07132417421806489,-0.13650979245834552
1745336012.4677553,0.884744,0.034892,-0.024766,-5.95,-1.0325000000000002,-2.3275,-0.3490207541654487,0.07132417421806489,-0.13650979245834552
1745336012.547845,1.250866,0.084058,-0.017202,3.7100000000000004,-6.4575000000000005,3.2375000000000003,-0.3490207541654487,0.07132417421806489,-0.13650979245834552
1745336012.627901,1.355176,0.196298,0.091378,15.172500000000001,1.4700000000000002,-17.430000000000003,-0.3490207541654487,0.07132417421806489,-0.13650979245834552
1745336012.7079823,1.282098,0.172508,0.24095,4.865,4.812500000000001,-24.3075,-0.3490207541654487,0.07132417421806489,-0.13650979245834552
1745336012.7880409,1.097024,0.177144,0.23216599999999998,14.227500000000001,9.117500000000001,10.010000000000002,-0.3490207541654487,0.07132417421806489,-0.13650979245834552
1745336012.8681228,0.645502,0.069174,0.14274,25.812500000000004,24.255000000000003,22.085,-0.3490207541654487,0.07132417421806489,-0.13650979245834552
1745336012.9481878,0.578524,0.08527799999999999,0.076738,24.972500000000004,11.13,25.1825,-0.3490207541654487,0.07132417421806489,-0.13650979245834552
1745336013.0282786,0.7537159999999999,0.141032,0.059657999999999996,18.62,-8.277500000000002,23.450000000000003,-0.3490207541654487,0.07132417421806489,-0.13650979245834552
1745336013.1083434,1.102636,0.135908,0.087596,6.282500000000001,-16.012500000000003,10.815000000000001,-0.3490207541654487,0.07132417421806489,-0.13650979245834552
1745336013.1884289,1.194502,-0.09272,0.290482,-11.0775,28.840000000000003,-9.8,-0.3490207541654487,0.07132417421806489,-0.13650979245834552
1745336013.2684925,1.061522,-0.10004,0.305244,4.2700000000000005,3.4650000000000003,-10.71,-0.3490207541654487,0.07132417421806489,-0.13650979245834552
1745336013.3485944,0.779336,0.047702,0.2135,-4.69,5.355,-22.6275,-0.3490207541654487,0.07132417421806489,-0.13650979245834552
1745336013.4286568,0.688568,0.069052,0.051118,-16.275000000000002,2.3975000000000004,-19.950000000000003,-0.3531131248173049,0.03800058462437884,-0.1642794504530839
1745336013.5087445,0.781654,0.050142,0.025254,-8.4175,-1.3650000000000002,-7.7700000000000005,-0.3531131248173049,0.03800058462437884,-0.1642794504530839
1745336013.590295,1.01016,0.077958,0.008296,1.2075,-6.282500000000001,2.7300000000000004,-0.3531131248173049,0.03800058462437884,-0.1642794504530839
1745336013.6688995,1.2719719999999999,0.14127599999999998,0.10431,15.680000000000001,-10.797500000000001,2.7825,-0.3531131248173049,0.03800058462437884,-0.1642794504530839
1745336013.749704,1.3845779999999999,0.219112,0.296216,10.010000000000002,7.1225000000000005,-20.457500000000003,-0.3531131248173049,0.03800058462437884,-0.1642794504530839
1745336013.829056,1.120814,0.219478,0.335622,5.285,5.705000000000001,-13.650000000000002,-0.3531131248173049,0.03800058462437884,-0.1642794504530839
1745336013.9091575,0.902312,0.154086,0.256322,10.500000000000002,17.3075,13.3,-0.3531131248173049,0.03800058462437884,-0.1642794504530839
1745336013.9892082,0.59231,0.067466,0.07564,14.927500000000002,24.64,19.425,-0.3531131248173049,0.03800058462437884,-0.1642794504530839
1745336014.0692754,0.660264,0.126392,0.120902,15.365000000000002,5.0925,23.817500000000003,-0.3531131248173049,0.03800058462437884,-0.1642794504530839
1745336014.1493595,0.8860859999999999,0.160796,0.12993,9.537500000000001,-11.97,17.885,-0.3531131248173049,0.03800058462437884,-0.1642794504530839
1745336014.2294266,1.135332,0.145546,0.18239,5.075,-5.775,9.117500000000001,-0.3531131248173049,0.03800058462437884,-0.1642794504530839
1745336014.3095133,1.419714,0.004514,0.311466,-21.8575,10.605,-5.5825000000000005,-0.3531131248173049,0.03800058462437884,-0.1642794504530839
1745336014.3895829,0.985516,-0.011224,0.300974,-5.74,-9.835,-18.3575,-0.3531131248173049,0.03800058462437884,-0.1642794504530839
1745336014.469669,0.67466,0.050752,0.14127599999999998,-14.070000000000002,-3.0975,-18.165000000000003,-0.3531131248173049,0.03800058462437884,-0.1642794504530839
1745336014.5497348,0.6451359999999999,0.040504,0.030622,-13.7025,-15.277500000000002,-2.0650000000000004,-0.3531131248173049,0.03800058462437884,-0.1642794504530839
1745336014.6298156,0.795196,0.061,0.012565999999999999,-14.070000000000002,-19.285,-5.5475,-0.3531131248173049,0.03800058462437884,-0.1642794504530839
1745336014.7128344,1.146312,0.021716,0.040015999999999996,-9.7825,-23.94,1.9075000000000002,-0.3531131248173049,0.03800058462437884,-0.1642794504530839
1745336014.7899714,1.382382,0.12017,0.173728,10.2375,-12.145000000000001,-0.42000000000000004,-0.3531131248173049,0.03800058462437884,-0.1642794504530839
1745336014.8730016,1.282586,0.13115,0.322812,-6.720000000000001,14.997500000000002,-18.777500000000003,-0.3531131248173049,0.03800058462437884,-0.1642794504530839
1745336014.9501247,1.085434,0.182024,0.29951,-12.582500000000001,8.3825,9.450000000000001,-0.33966676410406316,0.05904706226249635,-0.15697164571762642
1745336015.0331445,0.8270379999999999,0.12102399999999999,0.20996199999999998,-6.825000000000001,19.652500000000003,30.187500000000004,-0.33966676410406316,0.05904706226249635,-0.15697164571762642
1745336015.110283,0.640988,0.05307,0.046238,3.6225000000000005,10.815000000000001,23.817500000000003,-0.33966676410406316,0.05904706226249635,-0.15697164571762642
1745336015.1932998,0.7093079999999999,0.109556,0.050996,11.287500000000001,-21.700000000000003,19.6,-0.33966676410406316,0.05904706226249635,-0.15697164571762642
1745336015.2704463,0.970754,0.11223999999999999,0.050508,8.662500000000001,-36.61000000000001,9.065000000000001,-0.33966676410406316,0.05904706226249635,-0.15697164571762642
1745336015.3534803,1.24074,0.071858,0.150182,1.435,-19.8275,4.0600000000000005,-0.33966676410406316,0.05904706226249635,-0.15697164571762642
1745336015.430618,1.39812,-0.087596,0.279624,-10.307500000000001,8.89,-7.262500000000001,-0.33966676410406316,0.05904706226249635,-0.15697164571762642
1745336015.5136647,0.891698,-0.009637999999999999,0.203374,-11.9875,-4.4975000000000005,-10.832500000000001,-0.33966676410406316,0.05904706226249635,-0.15697164571762642
1745336015.5907774,0.649528,0.02562,0.034648,-35.35,5.390000000000001,-10.745000000000001,-0.33966676410406316,0.05904706226249635,-0.15697164571762642
1745336015.670865,0.705892,0.0305,0.003294,-26.0925,2.6075000000000004,-2.0125,-0.33966676410406316,0.05904706226249635,-0.15697164571762642
1745336015.7509286,0.917562,-0.009882,-0.002196,-9.2575,1.6975000000000002,-1.1375000000000002,-0.33966676410406316,0.05904706226249635,-0.15697164571762642
1745336015.8310277,1.1874259999999999,0.028426,0.017568,1.8375000000000001,-1.33,-3.3600000000000003,-0.33966676410406316,0.05904706226249635,-0.15697164571762642
1745336015.911088,1.428864,0.144448,0.120048,-3.535,1.155,-12.215000000000002,-0.33966676410406316,0.05904706226249635,-0.15697164571762642
1745336015.9911852,1.1758359999999999,0.090036,0.20935199999999998,-18.76,-3.6400000000000006,-15.330000000000002,-0.33966676410406316,0.05904706226249635,-0.15697164571762642
1745336016.0712445,1.165832,0.11102,0.20935199999999998,-4.235,-16.065,16.2575,-0.33966676410406316,0.05904706226249635,-0.15697164571762642
1745336016.1513443,0.72041,0.071858,0.159332,8.225000000000001,12.530000000000001,25.55,-0.33966676410406316,0.05904706226249635,-0.15697164571762642
1745336016.231403,0.625738,0.06539199999999999,0.100772,18.935000000000002,11.165000000000001,26.0225,-0.33966676410406316,0.05904706226249635,-0.15697164571762642
1745336016.311504,0.72529,0.087108,0.042578,30.800000000000004,-2.205,17.71,-0.33966676410406316,0.05904706226249635,-0.15697164571762642
1745336016.3915615,1.038098,0.071126,0.08527799999999999,21.297500000000003,-6.142500000000001,1.7675,-0.33966676410406316,0.05904706226249635,-0.15697164571762642
1745336016.471647,1.330166,-0.020862,0.126392,3.3950000000000005,-0.5950000000000001,-5.1275,-0.33966676410406316,0.05904706226249635,-0.15697164571762642
1745336016.5517092,1.3613979999999999,-0.154086,0.296948,-5.705000000000001,7.945000000000001,-0.525,-0.3314820228003508,0.09646302250803858,-0.13300204618532593
1745336016.6318014,0.814106,-0.009516,0.169092,-5.005000000000001,-8.4175,-5.687500000000001,-0.3314820228003508,0.09646302250803858,-0.13300204618532593
1745336016.7133014,0.61671,0.00549,0.015493999999999999,-20.51,2.2225,-10.780000000000001,-0.3314820228003508,0.09646302250803858,-0.13300204618532593
1745336016.7919579,0.716994,0.0075639999999999995,-0.00366,-12.687500000000002,0.665,-0.5950000000000001,-0.3314820228003508,0.09646302250803858,-0.13300204618532593
1745336016.8720114,0.96929,-0.011712,-0.015006,0.22750000000000004,0.385,4.445,-0.3314820228003508,0.09646302250803858,-0.13300204618532593
1745336016.952096,1.25904,0.00061,0.017324,9.082500000000001,-0.9800000000000001,-6.0025,-0.3314820228003508,0.09646302250803858,-0.13300204618532593
1745336017.0321581,1.420324,0.092598,0.244244,4.235,14.437500000000002,-26.110000000000003,-0.3314820228003508,0.09646302250803858,-0.13300204618532593
1745336017.112246,1.156194,0.08967,0.239364,-0.77,11.4275,-21.910000000000004,-0.3314820228003508,0.09646302250803858,-0.13300204618532593
1745336017.19231,1.072258,0.12322,0.225456,4.6025,2.5025000000000004,8.102500000000001,-0.3314820228003508,0.09646302250803858,-0.13300204618532593
1745336017.272393,0.677344,0.08174,0.175558,7.000000000000001,12.32,21.560000000000002,-0.3314820228003508,0.09646302250803858,-0.13300204618532593
1745336017.3524637,0.605974,0.018666,0.1281,9.8,2.555,20.8425,-0.3314820228003508,0.09646302250803858,-0.13300204618532593
1745336017.432547,0.806176,0.08064199999999999,0.060878,13.72,-16.117500000000003,21.6475,-0.3314820228003508,0.09646302250803858,-0.13300204618532593
1745336017.5126042,1.1234979999999999,0.074908,0.098698,7.402500000000001,-14.840000000000002,13.807500000000001,-0.3314820228003508,0.09646302250803858,-0.13300204618532593
1745336017.5926945,1.369206,-0.011467999999999999,0.142618,-6.195,-1.7500000000000002,8.925,-0.3314820228003508,0.09646302250803858,-0.13300204618532593
1745336017.672753,1.198528,-0.17812,0.310856,-25.007500000000004,17.552500000000002,-8.7675,-0.3314820228003508,0.09646302250803858,-0.13300204618532593
1745336017.7528327,0.7765299999999999,0.0046359999999999995,0.156038,-19.075000000000003,-0.385,-9.24,-0.3314820228003508,0.09646302250803858,-0.13300204618532593
1745336017.8328993,0.689056,0.002928,0.029523999999999998,-23.5375,8.155000000000001,-10.395000000000001,-0.3314820228003508,0.09646302250803858,-0.13300204618532593
1745336017.912979,0.768722,0.021106,0.020374,-8.172500000000001,6.142500000000001,-2.5900000000000003,-0.3314820228003508,0.09646302250803858,-0.13300204618532593
1745336017.9930418,0.957212,-0.003904,0.003538,6.16,0.08750000000000001,2.3275,-0.3314820228003508,0.09646302250803858,-0.13300204618532593
1745336018.073121,1.262456,-0.0060999999999999995,0.033794,18.8475,-5.862500000000001,1.3475000000000001,-0.34258988599824614,0.09763227126571178,-0.12774042677579656
1745336018.1531875,1.389214,0.12102399999999999,0.227164,14.962500000000002,7.7700000000000005,-16.59,-0.34258988599824614,0.09763227126571178,-0.12774042677579656
1745336018.233277,1.212802,0.049044,0.251076,4.4975000000000005,-2.0650000000000004,-14.752500000000001,-0.34258988599824614,0.09763227126571178,-0.12774042677579656
1745336018.3133364,1.047736,0.00976,0.320372,15.365000000000002,-6.615,11.165000000000001,-0.34258988599824614,0.09763227126571178,-0.12774042677579656
1745336018.393419,0.716994,0.00976,0.179828,25.427500000000002,2.8875,24.622500000000002,-0.34258988599824614,0.09763227126571178,-0.12774042677579656
1745336018.4734905,0.610244,0.008905999999999999,0.079544,28.000000000000004,-2.7125000000000004,31.307500000000005,-0.34258988599824614,0.09763227126571178,-0.12774042677579656
1745336018.5535686,0.758718,0.069296,0.055022,20.352500000000003,-11.795000000000002,20.580000000000002,-0.34258988599824614,0.09763227126571178,-0.12774042677579656
1745336018.6336315,1.176812,0.012688,0.112118,7.9975000000000005,-13.947500000000002,6.562500000000001,-0.34258988599824614,0.09763227126571178,-0.12774042677579656
1745336018.7137153,1.35054,-0.085034,0.129076,1.6450000000000002,-7.7700000000000005,-9.432500000000001,-0.34258988599824614,0.09763227126571178,-0.12774042677579656
1745336018.7937775,1.221586,-0.210084,0.284504,-12.180000000000001,12.740000000000002,-14.350000000000001,-0.34258988599824614,0.09763227126571178,-0.12774042677579656
1745336018.8738544,0.736026,0.005612,0.125294,-25.3225,4.48,-9.765,-0.34258988599824614,0.09763227126571178,-0.12774042677579656
1745336018.953918,0.648552,0.026108,0.017324,-23.695000000000004,4.515000000000001,-10.080000000000002,-0.34258988599824614,0.09763227126571178,-0.12774042677579656
1745336019.033996,0.777384,0.005246,-0.0026839999999999998,-8.33,6.492500000000001,-1.3125000000000002,-0.34258988599824614,0.09763227126571178,-0.12774042677579656
1745336019.1140623,1.006012,-0.019764,-0.01891,14.105000000000002,1.61,8.277500000000002,-0.34258988599824614,0.09763227126571178,-0.12774042677579656
1745336019.1941457,1.262822,0.002928,0.06039,32.620000000000005,-0.6300000000000001,1.0325000000000002,-0.34258988599824614,0.09763227126571178,-0.12774042677579656
1745336019.2742114,1.428742,0.082716,0.235826,15.295000000000002,18.585,-19.7575,-0.34258988599824614,0.09763227126571178,-0.12774042677579656
1745336019.3542984,1.173518,0.09467199999999999,0.2318,9.450000000000001,10.360000000000001,-6.6325,-0.34258988599824614,0.09763227126571178,-0.12774042677579656
1745336019.4343622,0.990884,0.02135,0.328668,24.115000000000002,5.6000000000000005,19.46,-0.34258988599824614,0.09763227126571178,-0.12774042677579656
1745336019.5144458,0.646966,0.072956,0.186782,35.14,10.430000000000001,20.7025,-0.34258988599824614,0.09763227126571178,-0.12774042677579656
1745336019.5945277,0.617686,-0.005978,0.12322,28.210000000000004,-5.0575,23.677500000000002,-0.32212803273896523,0.08477053493130664,-0.18006430868167203
1745336019.674613,0.804712,0.049044,0.12627,17.745,-16.310000000000002,18.532500000000002,-0.32212803273896523,0.08477053493130664,-0.18006430868167203
1745336019.7546635,1.161562,0.017079999999999998,0.156892,-0.7175,-14.017500000000002,2.9225000000000003,-0.32212803273896523,0.08477053493130664,-0.18006430868167203
1745336019.834744,1.45729,-0.125538,0.279502,-18.515,6.2125,-3.5525,-0.32212803273896523,0.08477053493130664,-0.18006430868167203
1745336019.9148295,1.091534,-0.24034,0.33989199999999997,-26.617500000000003,19.495,-13.3175,-0.32212803273896523,0.08477053493130664,-0.18006430868167203
1745336019.9948761,0.7616459999999999,-0.009516,0.143228,-37.48500000000001,1.1025,-27.545,-0.32212803273896523,0.08477053493130664,-0.18006430868167203
1745336020.0749867,0.694058,0.000976,0.030866,-37.852500000000006,1.0675000000000001,-16.1525,-0.32212803273896523,0.08477053493130664,-0.18006430868167203
1745336020.1550426,0.781898,-0.00244,0.00671,-22.102500000000003,-0.07,-6.527500000000001,-0.32212803273896523,0.08477053493130664,-0.18006430868167203
1745336020.235146,1.039318,-0.01464,-0.012565999999999999,-5.075,-11.165000000000001,10.045000000000002,-0.32212803273896523,0.08477053493130664,-0.18006430868167203
1745336020.3151991,1.296494,0.028182,0.043676,8.96,-10.867500000000001,3.535,-0.32212803273896523,0.08477053493130664,-0.18006430868167203
1745336020.3953009,1.405318,0.07417599999999999,0.252662,-3.7100000000000004,9.7125,-17.465000000000003,-0.32212803273896523,0.08477053493130664,-0.18006430868167203
1745336020.4753554,1.147166,0.03172,0.2318,-4.9175,-0.9100000000000001,-10.797500000000001,-0.32212803273896523,0.08477053493130664,-0.18006430868167203
1745336020.5554576,0.943182,0.034526,0.21862399999999999,4.41,-2.0825,11.830000000000002,-0.32212803273896523,0.08477053493130664,-0.18006430868167203
1745336020.635517,0.621468,0.025254,0.132248,5.6000000000000005,9.7125,15.977500000000001,-0.32212803273896523,0.08477053493130664,-0.18006430868167203
1745336020.715601,0.63867,0.079788,0.074908,10.2025,-2.2225,19.6,-0.32212803273896523,0.08477053493130664,-0.18006430868167203
1745336020.7956448,0.8583919999999999,0.089182,0.06344,7.157500000000001,-9.520000000000001,11.252500000000001,-0.32212803273896523,0.08477053493130664,-0.18006430868167203
1745336020.875728,1.174372,0.016958,0.11638799999999999,6.195,-5.285,3.9200000000000004,-0.32212803273896523,0.08477053493130664,-0.18006430868167203
1745336020.9557736,1.4611939999999999,-0.102602,0.249978,-7.5075,6.737500000000001,-0.525,-0.32212803273896523,0.08477053493130664,-0.18006430868167203
1745336021.0358605,1.134234,-0.274622,0.342698,-36.295,19.740000000000002,-18.515,-0.32212803273896523,0.08477053493130664,-0.18006430868167203
1745336021.115897,0.659288,-0.00976,0.09235399999999999,-34.282500000000006,7.402500000000001,-19.53,-0.34726688102893893,0.09470914937152879,-0.13183279742765272
1745336021.1959898,0.67527,0.030744,0.031964,-27.352500000000003,0.24500000000000002,-5.9675,-0.34726688102893893,0.09470914937152879,-0.13183279742765272
1745336021.2760394,0.7893399999999999,0.014274,0.008662,-11.0075,0.525,-2.7825,-0.34726688102893893,0.09470914937152879,-0.13183279742765272
1745336021.3561301,1.151558,0.028548,-0.00671,3.8500000000000005,-9.957500000000001,0.14,-0.34726688102893893,0.09470914937152879,-0.13183279742765272
1745336021.4361787,1.365546,0.046482,0.12749,21.000000000000004,-11.165000000000001,-12.075000000000001,-0.34726688102893893,0.09470914937152879,-0.13183279742765272
1745336021.516269,1.321748,0.07564,0.314272,17.220000000000002,4.812500000000001,-19.267500000000002,-0.34726688102893893,0.09470914937152879,-0.13183279742765272
1745336021.5963175,1.148264,0.07137,0.349286,-4.305000000000001,0.7000000000000001,-0.665,-0.34726688102893893,0.09470914937152879,-0.13183279742765272
1745336021.6764054,0.854,0.090036,0.247538,-4.8825,11.707500000000001,20.562500000000004,-0.34726688102893893,0.09470914937152879,-0.13183279742765272
1745336021.7564619,0.591212,0.013663999999999999,0.112118,10.727500000000001,13.440000000000001,28.8225,-0.34726688102893893,0.09470914937152879,-0.13183279742765272
1745336021.837995,0.660508,0.06222,0.108336,16.87,-5.0925,27.160000000000004,-0.34726688102893893,0.09470914937152879,-0.13183279742765272
1745336021.916612,0.900848,0.070516,0.127368,12.705000000000002,-9.2925,12.722500000000002,-0.34726688102893893,0.09470914937152879,-0.13183279742765272
1745336021.9966917,1.244888,0.036722,0.152744,3.1325000000000003,-5.442500000000001,0.8750000000000001,-0.34726688102893893,0.09470914937152879,-0.13183279742765272
1745336022.0767713,1.445578,-0.086742,0.294142,-10.517500000000002,14.402500000000002,1.435,-0.34726688102893893,0.09470914937152879,-0.13183279742765272
1745336022.1568544,1.089704,-0.206058,0.285236,-9.520000000000001,9.415000000000001,-6.405,-0.34726688102893893,0.09470914937152879,-0.13183279742765272
1745336022.2369204,0.651358,0.015006,0.097234,9.8,3.7800000000000002,-8.155000000000001,-0.34726688102893893,0.09470914937152879,-0.13183279742765272
1745336022.3169985,0.720654,-0.046482,0.016226,10.850000000000001,-7.910000000000001,3.115,-0.34726688102893893,0.09470914937152879,-0.13183279742765272
1745336022.3970566,0.85156,-0.055388,0.026962,24.657500000000002,-4.357500000000001,1.8900000000000001,-0.34726688102893893,0.09470914937152879,-0.13183279742765272
1745336022.4771376,1.11752,-0.128832,0.058804,33.127500000000005,-8.277500000000002,9.8,-0.34726688102893893,0.09470914937152879,-0.13183279742765272
1745336022.5571983,1.399584,-0.08527799999999999,0.223992,32.9525,-7.735,8.225000000000001,-0.34726688102893893,0.09470914937152879,-0.13183279742765272
1745336022.637281,1.24684,-0.030987999999999998,0.354532,18.2175,-0.29750000000000004,-3.4125000000000005,-0.34726688102893893,0.09470914937152879,-0.13183279742765272
1745336022.7173367,1.186938,0.069662,0.33488999999999997,-6.982500000000001,-13.072500000000002,8.190000000000001,-0.3262204033908214,0.10230926629640456,-0.1666179479684303
1745336022.7974236,0.844362,0.019764,0.300364,-20.282500000000002,7.700000000000001,14.227500000000001,-0.3262204033908214,0.10230926629640456,-0.1666179479684303
1745336022.8774807,0.541802,0.038308,0.09759999999999999,-11.602500000000001,18.41,13.177500000000002,-0.3262204033908214,0.10230926629640456,-0.1666179479684303
1745336022.9575667,0.69723,0.015493999999999999,0.074298,-4.760000000000001,1.5050000000000001,11.847500000000002,-0.3262204033908214,0.10230926629640456,-0.1666179479684303
1745336023.0376265,0.957456,0.017202,0.107238,0.385,-7.822500000000001,10.762500000000001,-0.3262204033908214,0.10230926629640456,-0.1666179479684303
1745336023.1177044,1.201944,-0.047214,0.174338,-4.4275,-7.280000000000001,7.0875,-0.3262204033908214,0.10230926629640456,-0.1666179479684303
1745336023.197766,1.424594,-0.169458,0.262178,-16.520000000000003,5.775,2.2750000000000004,-0.3262204033908214,0.10230926629640456,-0.1666179479684303
1745336023.2778494,1.0918999999999999,-0.307562,0.332694,-28.070000000000004,8.4875,-10.360000000000001,-0.3262204033908214,0.10230926629640456,-0.1666179479684303
1745336023.3579078,0.977464,-0.095038,0.28560199999999997,-36.3125,7.857500000000001,-24.3075,-0.3262204033908214,0.10230926629640456,-0.1666179479684303
1745336023.4379914,0.6864939999999999,0.000122,0.011833999999999999,-25.060000000000002,-1.5575,-9.922500000000001,-0.3262204033908214,0.10230926629640456,-0.1666179479684303
1745336023.5180497,0.764574,-0.026595999999999998,0.003172,-5.1275,-1.9075000000000002,-1.7675,-0.3262204033908214,0.10230926629640456,-0.1666179479684303
1745336023.598132,1.13887,-0.070394,0.031598,8.207500000000001,-7.577500000000001,6.125000000000001,-0.3262204033908214,0.10230926629640456,-0.1666179479684303
1745336023.678188,1.36396,0.01525,0.180926,14.175,0.21000000000000002,-3.0100000000000002,-0.3262204033908214,0.10230926629640456,-0.1666179479684303
1745336023.7582686,1.297836,0.00244,0.269742,-0.42000000000000004,7.9625,-28.577500000000004,-0.3262204033908214,0.10230926629640456,-0.1666179479684303
1745336023.83833,1.216096,0.038918,0.296216,4.0075,-7.577500000000001,-5.1275,-0.3262204033908214,0.10230926629640456,-0.1666179479684303
1745336023.918411,0.81984,0.033062,0.23851,17.78,2.0125,15.330000000000002,-0.3262204033908214,0.10230926629640456,-0.1666179479684303
1745336023.9984694,0.542412,0.001098,0.094916,30.695000000000004,3.6575,23.555000000000003,-0.3262204033908214,0.10230926629640456,-0.1666179479684303
1745336024.0785606,0.647454,0.03721,0.08942599999999999,29.645000000000003,-13.195000000000002,24.85,-0.3262204033908214,0.10230926629640456,-0.1666179479684303
1745336024.1586297,0.9821,0.004514,0.136762,20.195,-18.567500000000003,12.092500000000001,-0.3262204033908214,0.10230926629640456,-0.1666179479684303
1745336024.2387195,1.288564,-0.08881599999999999,0.193614,10.045000000000002,-4.0600000000000005,5.5475,-0.3080970476468869,0.12510961707103185,-0.12715580239695995
1745336024.3187888,1.412638,-0.228872,0.307074,-8.715000000000002,25.077500000000004,-1.155,-0.3080970476468869,0.12510961707103185,-0.12715580239695995
1745336024.3988786,1.05408,-0.31585799999999997,0.25437,-17.360000000000003,2.5200000000000005,-2.87,-0.3080970476468869,0.12510961707103185,-0.12715580239695995
1745336024.4789462,0.8720559999999999,-0.066246,0.253516,-19.2325,-10.342500000000001,-18.707500000000003,-0.3080970476468869,0.12510961707103185,-0.12715580239695995
1745336024.559037,0.7123579999999999,0.0057339999999999995,0.014029999999999999,-26.880000000000003,2.9225000000000003,-11.235000000000001,-0.3080970476468869,0.12510961707103185,-0.12715580239695995
1745336024.6410081,0.8486319999999999,-0.040015999999999996,-0.015372,-6.142500000000001,4.6025,-0.42000000000000004,-0.3080970476468869,0.12510961707103185,-0.12715580239695995
1745336024.7191954,1.2196339999999999,-0.095404,0.013176,18.0425,-2.66,8.4,-0.3080970476468869,0.12510961707103185,-0.12715580239695995
1745336024.8004103,1.39507,0.030744,0.17885199999999998,14.035000000000002,3.22,-8.732500000000002,-0.3080970476468869,0.12510961707103185,-0.12715580239695995
1745336024.8793476,1.285514,0.011467999999999999,0.249856,-8.662500000000001,4.0600000000000005,-32.917500000000004,-0.3080970476468869,0.12510961707103185,-0.12715580239695995
1745336024.959855,1.159,0.004758,0.327448,4.8825,-2.8350000000000004,-1.54,-0.3080970476468869,0.12510961707103185,-0.12715580239695995
1745336025.0395026,0.7184579999999999,0.076006,0.22752999999999998,23.590000000000003,15.207500000000001,24.657500000000002,-0.3080970476468869,0.12510961707103185,-0.12715580239695995
1745336025.1195729,0.583282,-0.008418,0.09577,29.347500000000004,0.5775,28.612500000000004,-0.3080970476468869,0.12510961707103185,-0.12715580239695995
1745336025.1996584,0.693936,0.028914,0.088328,25.130000000000003,-19.985000000000003,28.070000000000004,-0.3080970476468869,0.12510961707103185,-0.12715580239695995
1745336025.2797277,1.073722,0.008784,0.134566,22.242500000000003,-24.675,13.3,-0.3080970476468869,0.12510961707103185,-0.12715580239695995
1745336025.3598218,1.28588,-0.108214,0.220942,13.842500000000001,-9.030000000000001,2.0125,-0.3080970476468869,0.12510961707103185,-0.12715580239695995
1745336025.4398792,1.272948,-0.210816,0.285968,-10.080000000000002,19.617500000000003,-10.447500000000002,-0.3080970476468869,0.12510961707103185,-0.12715580239695995
1745336025.5199573,1.096902,-0.30256,0.244854,-14.227500000000001,5.477500000000001,-11.847500000000002,-0.3080970476468869,0.12510961707103185,-0.12715580239695995
1745336025.600016,0.853024,-0.050386,0.219722,-11.8825,1.8550000000000002,-5.3725000000000005,-0.3080970476468869,0.12510961707103185,-0.12715580239695995
1745336025.6800916,0.735294,-0.015738,0.019154,-11.1125,1.715,-5.7225,-0.3080970476468869,0.12510961707103185,-0.12715580239695995
1745336025.7631032,0.862418,-0.09113399999999999,0.013054,0.7875000000000001,1.1375000000000002,-0.5425000000000001,-0.3285589009061678,0.11750950014615609,-0.1400175387313651
1745336025.8402379,1.21878,-0.099064,0.066002,9.8175,-4.7250000000000005,7.822500000000001,-0.3285589009061678,0.11750950014615609,-0.1400175387313651
1745336025.9232495,1.45546,0.026474,0.237778,7.98,5.687500000000001,-12.215000000000002,-0.3285589009061678,0.11750950014615609,-0.1400175387313651
1745336026.0003898,1.207556,-0.027572,0.26961999999999997,-7.280000000000001,5.442500000000001,-24.517500000000002,-0.3285589009061678,0.11750950014615609,-0.1400175387313651
1745336026.0834095,1.099586,0.005246,0.28914,2.2225,-7.98,6.2125,-0.3285589009061678,0.11750950014615609,-0.1400175387313651
1745336026.1605365,0.705526,0.0046359999999999995,0.157136,9.625000000000002,3.4475000000000002,18.515,-0.3285589009061678,0.11750950014615609,-0.1400175387313651
1745336026.2435436,0.621468,0.010126,0.10492,16.957500000000003,-1.715,20.6675,-0.3285589009061678,0.11750950014615609,-0.1400175387313651
1745336026.3206825,0.721996,0.034404,0.091378,18.9875,-13.6675,20.0025,-0.3285589009061678,0.11750950014615609,-0.1400175387313651
1745336026.4036891,1.1344779999999999,-0.01098,0.141642,14.1225,-13.457500000000001,7.052500000000001,-0.3285589009061678,0.11750950014615609,-0.1400175387313651
1745336026.4808156,1.256356,-0.13847,0.19519999999999998,-4.83,4.2175,0.0,-0.3285589009061678,0.11750950014615609,-0.1400175387313651
1745336026.5638492,1.261968,-0.23973,0.267668,-33.8275,16.1525,-17.797500000000003,-0.3285589009061678,0.11750950014615609,-0.1400175387313651
1745336026.6409466,1.10776,-0.24790399999999999,0.301584,-28.472500000000004,-2.0650000000000004,-16.957500000000003,-0.3285589009061678,0.11750950014615609,-0.1400175387313651
1745336026.7210283,0.802882,-0.077226,0.163724,-16.747500000000002,3.0625000000000004,-7.7700000000000005,-0.3285589009061678,0.11750950014615609,-0.1400175387313651
1745336026.8010762,0.750422,-0.016836,0.013542,-15.155000000000001,1.9425000000000001,-6.6850000000000005,-0.3285589009061678,0.11750950014615609,-0.1400175387313651
1745336026.8826005,0.96502,-0.08064199999999999,0.000122,-4.8475,1.61,0.47250000000000003,-0.3285589009061678,0.11750950014615609,-0.1400175387313651
1745336026.9626646,1.207922,-0.089304,0.047945999999999996,1.2425000000000002,-2.975,0.9450000000000001,-0.3285589009061678,0.11750950014615609,-0.1400175387313651
1745336027.0413108,1.383114,0.050508,0.20288599999999998,-6.597500000000001,6.527500000000001,-16.117500000000003,-0.3285589009061678,0.11750950014615609,-0.1400175387313651
1745336027.121363,1.180838,0.015616,0.24949,-12.197500000000002,-0.07,-20.1075,-0.3285589009061678,0.11750950014615609,-0.1400175387313651
1745336027.2014549,1.127646,0.014884,0.345748,3.0975,-12.967500000000001,10.2375,-0.3285589009061678,0.11750950014615609,-0.1400175387313651
1745336027.2815065,0.7278519999999999,0.028182,0.175558,12.7925,4.6375,20.195,-0.3197895352236188,0.10932475884244373,-0.1359251680795089
1745336027.3616133,0.614514,-0.012444,0.097112,21.840000000000003,3.1675000000000004,27.615000000000002,-0.3197895352236188,0.10932475884244373,-0.1359251680795089
1745336027.4416525,0.694668,0.016226,0.08295999999999999,22.680000000000003,-7.700000000000001,25.69,-0.3197895352236188,0.10932475884244373,-0.1359251680795089
1745336027.5217435,1.105686,-0.016836,0.144082,14.735000000000001,-13.912500000000001,12.110000000000001,-0.3197895352236188,0.10932475884244373,-0.1359251680795089
1745336027.601797,1.350296,-0.11809599999999999,0.184464,-3.2900000000000005,4.305000000000001,3.8500000000000005,-0.3197895352236188,0.10932475884244373,-0.1359251680795089
1745336027.6818793,1.261724,-0.275476,0.334524,-24.71,21.910000000000004,-10.5525,-0.3197895352236188,0.10932475884244373,-0.1359251680795089
1745336027.7619362,1.0395619999999999,-0.252784,0.23607,-15.890000000000002,-5.635000000000001,-9.31,-0.3197895352236188,0.10932475884244373,-0.1359251680795089
1745336027.8420148,0.791536,-0.03599,0.20923,-20.492500000000003,-0.42000000000000004,-9.117500000000001,-0.3197895352236188,0.10932475884244373,-0.1359251680795089
1745336027.9220731,0.7363919999999999,-0.016226,0.02867,-13.125000000000002,7.735,-10.062500000000002,-0.3197895352236188,0.10932475884244373,-0.1359251680795089
1745336028.002157,0.92659,-0.093696,0.01891,-0.5775,3.4650000000000003,0.035,-0.3197895352236188,0.10932475884244373,-0.1359251680795089
1745336028.0822144,1.242448,-0.081984,0.086864,11.357500000000002,-3.4650000000000003,7.875000000000001,-0.3197895352236188,0.10932475884244373,-0.1359251680795089
1745336028.1622996,1.43167,0.028426,0.288286,10.99,7.910000000000001,-12.040000000000001,-0.3197895352236188,0.10932475884244373,-0.1359251680795089
1745336028.242357,1.182302,-0.023424,0.271206,0.6300000000000001,-3.3425000000000002,-21.560000000000002,-0.3197895352236188,0.10932475884244373,-0.1359251680795089
1745336028.3224401,1.11752,-0.015372,0.341966,10.185,-12.162500000000001,6.0025,-0.3197895352236188,0.10932475884244373,-0.1359251680795089
1745336028.402508,0.693448,0.027816,0.201544,22.575000000000003,3.1850000000000005,21.910000000000004,-0.3197895352236188,0.10932475884244373,-0.1359251680795089
1745336028.4825823,0.589504,0.006222,0.096136,21.175,-3.2550000000000003,21.035000000000004,-0.3197895352236188,0.10932475884244373,-0.1359251680795089
1745336028.5626411,0.7190679999999999,0.046848,0.121878,19.547500000000003,-15.05,18.742500000000003,-0.3197895352236188,0.10932475884244373,-0.1359251680795089
1745336028.6427243,1.125572,-0.010003999999999999,0.134566,19.1975,-18.060000000000002,10.535,-0.3197895352236188,0.10932475884244373,-0.1359251680795089
1745336028.722782,1.307474,-0.10248,0.178364,8.207500000000001,-0.45500000000000007,1.4175000000000002,-0.3197895352236188,0.10932475884244373,-0.1359251680795089
1745336028.802871,1.28527,-0.222894,0.250954,-22.767500000000002,14.805000000000001,-14.997500000000002,-0.3197895352236188,0.10932475884244373,-0.1359251680795089
1745336028.882928,0.98942,-0.23619199999999999,0.23424,-16.2925,-8.925,-7.525,-0.3203741596024554,0.12160187079801228,-0.12978661210172465
1745336028.9630108,0.83448,-0.044042,0.210084,-12.845,0.5775,-8.085,-0.3203741596024554,0.12160187079801228,-0.12978661210172465
1745336029.043069,0.752862,-0.026595999999999998,0.019398,-11.97,11.8825,-7.857500000000001,-0.3203741596024554,0.12160187079801228,-0.12978661210172465
1745336029.1231544,0.929152,-0.077226,-0.000732,0.5075000000000001,6.2125,0.17500000000000002,-0.3203741596024554,0.12160187079801228,-0.12978661210172465
1745336029.203213,1.164978,-0.07747,0.068076,13.7375,0.385,8.242500000000001,-0.3203741596024554,0.12160187079801228,-0.12978661210172465
1745336029.2832954,1.37311,0.02562,0.169214,4.2875000000000005,4.340000000000001,-15.382500000000002,-0.3203741596024554,0.12160187079801228,-0.12978661210172465
1745336029.36336,1.257332,-0.000732,0.256322,-15.452500000000002,-2.2225,-29.347500000000004,-0.3203741596024554,0.12160187079801228,-0.12978661210172465
1745336029.4434445,1.12118,0.017568,0.32025,0.3325,-17.955000000000002,-0.08750000000000001,-0.3203741596024554,0.12160187079801228,-0.12978661210172465
1745336029.5234993,0.751642,0.029768,0.210084,8.05,2.1,13.877500000000001,-0.3203741596024554,0.12160187079801228,-0.12978661210172465
1745336029.6035874,0.620248,0.010369999999999999,0.06770999999999999,16.2925,3.5700000000000003,20.0375,-0.3203741596024554,0.12160187079801228,-0.12978661210172465
1745336029.6836457,0.738466,0.046116,0.068198,15.872500000000002,-10.2025,22.750000000000004,-0.3203741596024554,0.12160187079801228,-0.12978661210172465
1745336029.7637334,1.035658,0.024644,0.098942,11.322500000000002,-14.1575,14.175,-0.3203741596024554,0.12160187079801228,-0.12978661210172465
1745336029.8438025,1.239032,-0.039528,0.152744,-0.35000000000000003,-0.8225000000000001,4.2700000000000005,-0.3203741596024554,0.12160187079801228,-0.12978661210172465
1745336029.9238899,1.352492,-0.16775,0.288042,-13.965000000000002,20.492500000000003,-6.4225,-0.3203741596024554,0.12160187079801228,-0.12978661210172465
1745336030.00396,1.073112,-0.28792,0.273524,-17.220000000000002,4.8475,-11.585,-0.3203741596024554,0.12160187079801228,-0.12978661210172465
1745336030.0840504,0.913536,-0.08820599999999999,0.223504,-10.0975,-7.7875000000000005,-10.027500000000002,-0.3203741596024554,0.12160187079801228,-0.12978661210172465
1745336030.164115,0.7111379999999999,0.024399999999999998,0.0060999999999999995,-18.270000000000003,-3.0275000000000003,-0.7875000000000001,-0.3203741596024554,0.12160187079801228,-0.12978661210172465
1745336030.2442029,0.8651019999999999,-0.032574,-0.012931999999999999,-5.3375,1.3125000000000002,-0.9100000000000001,-0.3203741596024554,0.12160187079801228,-0.12978661210172465
1745336030.3242726,1.1430179999999999,-0.058316,0.0026839999999999998,14.6125,-7.035000000000001,4.0075,-0.3203741596024554,0.12160187079801228,-0.12978661210172465
1745336030.404377,1.463146,0.040992,0.212402,21.490000000000002,-5.075,-8.89,-0.3332358959368606,0.10055539315989477,-0.12306343174510377
1745336030.4844327,1.252452,0.004026,0.272548,3.3950000000000005,2.4325,-20.0725,-0.3332358959368606,0.10055539315989477,-0.12306343174510377
1745336030.5645123,1.149484,0.04392,0.233264,7.420000000000001,-3.22,7.577500000000001,-0.3332358959368606,0.10055539315989477,-0.12306343174510377
1745336030.6445744,0.704794,-0.015982,0.132614,19.635,6.055000000000001,22.4525,-0.3332358959368606,0.10055539315989477,-0.12306343174510377
1745336030.7246556,0.580842,-0.004758,0.08784,25.777500000000003,-3.0625000000000004,24.867500000000003,-0.3332358959368606,0.10055539315989477,-0.12306343174510377
1745336030.804725,0.71797,0.02013,0.061488,20.9825,-16.835,21.6825,-0.3332358959368606,0.10055539315989477,-0.12306343174510377
1745336030.8848088,1.069086,0.0008539999999999999,0.058682,12.092500000000001,-19.6,16.59,-0.3332358959368606,0.10055539315989477,-0.12306343174510377
1745336030.9648786,1.318576,-0.117974,0.138226,-2.8000000000000003,0.0175,10.2725,-0.3332358959368606,0.10055539315989477,-0.12306343174510377
1745336031.0449634,1.258674,-0.289506,0.314272,-15.5225,28.437500000000004,-2.9050000000000002,-0.3332358959368606,0.10055539315989477,-0.12306343174510377
1745336031.1250331,1.1204479999999999,-0.270596,0.270962,-7.647500000000001,4.567500000000001,-6.195,-0.3332358959368606,0.10055539315989477,-0.12306343174510377
1745336031.205118,0.802272,-0.076738,0.12456199999999999,-23.852500000000003,2.1875,-21.297500000000003,-0.3332358959368606,0.10055539315989477,-0.12306343174510377
1745336031.2851875,0.642208,-0.00183,0.005856,-11.305000000000001,-3.2025,-0.385,-0.3332358959368606,0.10055539315989477,-0.12306343174510377
1745336031.3652766,0.914512,-0.088084,-0.016226,0.0175,1.1025,4.760000000000001,-0.3332358959368606,0.10055539315989477,-0.12306343174510377
1745336031.4453416,1.210606,-0.076982,0.036234,7.630000000000001,-1.2950000000000002,1.3125000000000002,-0.3332358959368606,0.10055539315989477,-0.12306343174510377
1745336031.5254319,1.47132,0.015982,0.26535,5.1625000000000005,7.262500000000001,-21.227500000000003,-0.3332358959368606,0.10055539315989477,-0.12306343174510377
1745336031.6066597,1.243912,0.027206,0.246928,0.6475000000000001,1.8900000000000001,-22.137500000000003,-0.3332358959368606,0.10055539315989477,-0.12306343174510377
1745336031.685599,1.091046,-0.022448,0.225334,14.700000000000001,-2.7475,8.120000000000001,-0.3332358959368606,0.10055539315989477,-0.12306343174510377
1745336031.7660723,0.654286,-0.032208,0.11651,32.67250000000001,1.2600000000000002,20.7725,-0.3332358959368606,0.10055539315989477,-0.12306343174510377
1745336031.8457427,0.6119519999999999,0.001952,0.085522,31.027500000000003,-14.857500000000002,31.01,-0.3332358959368606,0.10055539315989477,-0.12306343174510377
