Timestamp,Accel X,Accel Y,Accel Z,Gyro X,Gyro Y,Gyro Z,Magneto X,Magneto Y,Magneto Z
1745336839.365541,0.99796,0.061121999999999996,0.11102,0.0,0.8750000000000001,-0.47250000000000003,-0.4712072493422976,0.08272434960537854,-0.20052616194095294
1745336839.3695695,0.997594,0.06478199999999999,0.102114,-0.24500000000000002,-1.7500000000000002,-0.56,-0.47208418591055246,0.08184741303712365,-0.20023384975153463
1745336839.3732297,1.000888,0.062342,0.105164,-0.08750000000000001,-3.1325000000000003,0.9625000000000001,-0.47208418591055246,0.08184741303712365,-0.20023384975153463
1745336839.3763433,0.995032,0.061975999999999996,0.106262,4.340000000000001,-0.7000000000000001,-0.15750000000000003,-0.47529961999415377,0.08155510084770536,-0.20081847413037124
1745336839.3794699,0.99857,0.032452,0.09881999999999999,0.24500000000000002,-0.14,0.24500000000000002,-0.47529961999415377,0.08155510084770536,-0.20081847413037124
1745336839.3826473,0.99369,0.06539199999999999,0.100772,-0.9275000000000001,-4.1475,0.08750000000000001,-0.47208418591055246,0.08126278865828705,-0.19935691318327975
1745336839.3858898,0.9977159999999999,0.057462,0.09991799999999999,-0.665,-1.6625,0.805,-0.47208418591055246,0.08126278865828705,-0.19935691318327975
1745336839.3890488,1.003694,0.065514,0.10858,-0.14,-0.1925,0.6125,-0.4703303127740427,0.07980122771119556,-0.20169541069862612
1745336839.392075,1.00162,0.06283,0.10675,-3.115,-1.1025,-0.22750000000000004,-0.4703303127740427,0.07980122771119556,-0.20169541069862612
1745336839.3950918,0.9983259999999999,0.063196,0.107238,1.33,-0.8575,0.8925000000000001,-0.4712072493422976,0.07717041800643087,-0.20198772288804442
1745336839.3980334,0.99979,0.063806,0.10492,0.15750000000000003,-1.4700000000000002,-0.31500000000000006,-0.4712072493422976,0.07717041800643087,-0.20198772288804442
1745336839.4009953,0.99735,0.06588,0.105896,-0.47250000000000003,-1.9250000000000003,0.8225000000000001,-0.4694533762057878,0.08038585209003216,-0.19964922537269805
1745336839.4052389,1.00101,0.06709999999999999,0.11102,-0.47250000000000003,0.8750000000000001,0.17500000000000002,-0.4694533762057878,0.08038585209003216,-0.19964922537269805
1745336839.4090765,0.998692,0.058438,0.103578,-4.340000000000001,0.6475000000000001,0.08750000000000001,-0.4682841274481146,0.07950891552177726,-0.2034492838351359
1745336839.4128518,0.99674,0.062708,0.10248,-0.8225000000000001,-0.2625,0.42000000000000004,-0.4682841274481146,0.07950891552177726,-0.2034492838351359
1745336839.4159796,0.998082,0.057706,0.106628,-0.665,-0.47250000000000003,0.29750000000000004,-0.4723764980999708,0.08506284712072494,-0.20315697164571764
1745336839.4191964,0.96868,0.066246,0.10174799999999999,-0.8575,-0.4025,0.36750000000000005,-0.4723764980999708,0.08506284712072494,-0.20315697164571764
1745336839.422261,0.99613,0.06466,0.104798,0.6825000000000001,-0.07,0.10500000000000001,-0.4709149371528793,0.08272434960537854,-0.20140309850920785
1745336839.4254801,1.003816,0.060634,0.10736,0.385,-1.225,0.36750000000000005,-0.4709149371528793,0.08272434960537854,-0.20140309850920785
1745336839.4285524,1.001254,0.06649,0.108458,0.5425000000000001,-0.9450000000000001,0.385,-0.46857643963753287,0.08330897398421515,-0.20491084478222743
1745336839.432138,0.999668,0.060634,0.10577399999999999,0.21000000000000002,-0.24500000000000002,-0.31500000000000006,-0.46857643963753287,0.08330897398421515,-0.20491084478222743
1745336839.437765,0.999912,0.062586,0.109678,3.7625,-1.7850000000000001,-0.525,-0.4712072493422976,0.08418591055247004,-0.19760304004676996
1745336839.4415574,0.992958,0.060024,0.105408,-0.7175,0.5425000000000001,0.7175,-0.4682841274481146,0.08535515931014323,-0.19994153756211633
1745336839.444841,1.001132,0.065026,0.110776,-0.12250000000000001,0.49000000000000005,-0.22750000000000004,-0.4682841274481146,0.08535515931014323,-0.19994153756211633
1745336839.448162,0.992348,0.061121999999999996,0.11406999999999999,3.5525,-1.6975000000000002,-0.1925,-0.46799181525869626,0.08652440806781643,-0.205495469161064
1745336839.4515126,0.99552,0.066978,0.104554,-0.1925,2.7300000000000004,0.0,-0.46799181525869626,0.08652440806781643,-0.205495469161064
1745336839.4548135,0.9943,0.067954,0.106018,-0.12250000000000001,-1.1900000000000002,0.805,-0.4709149371528793,0.08535515931014323,-0.20432622040339082
1745336839.4580195,1.001376,0.06527,0.10699399999999999,0.45500000000000007,0.8925000000000001,0.052500000000000005,-0.4709149371528793,0.08535515931014323,-0.20432622040339082
1745336839.4627113,0.9995459999999999,0.06283,0.106872,0.14,-0.1925,1.1375000000000002,-0.47413037123648055,0.08097047646886875,-0.20491084478222743
1745336839.466801,0.9989359999999999,0.060878,0.102114,-0.665,3.1500000000000004,0.42000000000000004,-0.4703303127740427,0.08213972522654195,-0.20666471791873722
1745336839.4702785,1.003328,0.057462,0.105408,-0.052500000000000005,-0.4025,0.56,-0.4703303127740427,0.08213972522654195,-0.20666471791873722
1745336839.4733696,1.000278,0.059292,0.108702,0.49000000000000005,-1.225,0.10500000000000001,-0.4691610640163695,0.08067816427945046,-0.20286465945629933
1745336839.4765124,0.996618,0.062464,0.1037,0.1925,-1.3475000000000001,0.5075000000000001,-0.4691610640163695,0.08067816427945046,-0.20286465945629933
1745336839.4796953,1.002108,0.063318,0.10638399999999999,-0.56,0.08750000000000001,0.08750000000000001,-0.4691610640163695,0.08067816427945046,-0.20315697164571764
1745336839.4829504,1.002352,0.065026,0.107726,-0.14,-1.3125000000000002,0.43750000000000006,-0.4703303127740427,0.08067816427945046,-0.20315697164571764
1745336839.4860125,0.999668,0.066002,0.10406599999999999,-0.035,3.5700000000000003,0.10500000000000001,-0.4703303127740427,0.08067816427945046,-0.20140309850920785
1745336839.4890087,1.001986,0.058804,0.10797,0.5950000000000001,0.12250000000000001,0.15750000000000003,-0.4717918737211342,0.08213972522654195,-0.20140309850920785
1745336839.4920442,0.9989359999999999,0.06527,0.100162,3.9025000000000003,-0.6125,-0.24500000000000002,-0.4717918737211342,0.08213972522654195,-0.20140309850920785
1745336839.495049,1.000644,0.037698,0.106872,0.07,-0.9450000000000001,0.29750000000000004,-0.47149956153171585,0.08272434960537854,-0.19847997661502484
1745336839.4979913,1.00162,0.059902,0.099796,-0.7175,-1.3125000000000002,0.22750000000000004,-0.47149956153171585,0.08272434960537854,-0.19847997661502484
1745336839.5016997,0.998448,0.060756,0.102114,0.8400000000000001,-0.21000000000000002,-0.28,-0.4688687518269512,0.08184741303712365,-0.19760304004676996
1745336839.5059505,0.998082,0.062708,0.107726,0.43750000000000006,-0.5425000000000001,-0.3325,-0.4688687518269512,0.08067816427945046,-0.19906460099386145
1745336839.509549,0.99796,0.062586,0.104554,0.4025,-1.3125000000000002,-0.08750000000000001,-0.4688687518269512,0.08067816427945046,-0.19906460099386145
1745336839.5126977,0.99796,0.060024,0.099308,0.8750000000000001,-1.435,-4.0075,-0.4691610640163695,0.08506284712072494,-0.19760304004676996
1745336839.5159132,1.001742,0.066734,0.104798,-0.47250000000000003,0.5075000000000001,-0.10500000000000001,-0.4691610640163695,0.08506284712072494,-0.19760304004676996
1745336839.5191686,1.0304119999999999,0.066978,0.112728,0.5075000000000001,-0.385,0.7875000000000001,-0.4691610640163695,0.08418591055247004,-0.19731072785735165
1745336839.5223927,1.000644,0.061975999999999996,0.103578,4.305000000000001,0.4025,0.10500000000000001,-0.47208418591055246,0.08418591055247004,-0.19731072785735165
1745336839.5255003,0.9995459999999999,0.060511999999999996,0.106506,0.14,-0.22750000000000004,0.22750000000000004,-0.47208418591055246,0.08418591055247004,-0.20315697164571764
1745336839.5284836,0.996374,0.061732,0.103944,-1.3125000000000002,-0.5775,-3.5700000000000003,-0.4688687518269512,0.08360128617363344,-0.20315697164571764
1745336839.5314972,1.001742,0.06588,0.10553,0.0175,-0.665,0.3325,-0.4688687518269512,0.08360128617363344,-0.20315697164571764
1745336839.5344434,1.000644,0.064904,0.102358,0.8400000000000001,0.07,-0.5775,-0.4694533762057878,0.08213972522654195,-0.2052031569716457
1745336839.537419,1.000644,0.062708,0.104188,0.15750000000000003,4.235,-0.08750000000000001,-0.4694533762057878,0.08213972522654195,-0.2052031569716457
1745336839.5415056,0.999668,0.062586,0.108824,1.0325000000000002,1.1725,4.2875000000000005,-0.4717918737211342,0.08213972522654195,-0.20374159602455422
1745336839.54562,0.9983259999999999,0.034648,0.10638399999999999,-0.43750000000000006,-0.24500000000000002,-0.052500000000000005,-0.4694533762057878,0.08418591055247004,-0.20140309850920785
1745336839.5490956,0.997228,0.066002,0.11041,0.43750000000000006,3.2900000000000005,-0.31500000000000006,-0.4694533762057878,0.08418591055247004,-0.20140309850920785
1745336839.5521798,1.000644,0.063074,0.096136,2.9225000000000003,-0.7000000000000001,0.7875000000000001,-0.46799181525869626,0.08243203741596025,-0.2069570301081555
1745336839.5551798,0.997472,0.031964,0.09881999999999999,-1.0675000000000001,-1.8025000000000002,-0.5075000000000001,-0.46799181525869626,0.08243203741596025,-0.2069570301081555
1745336839.558144,0.997472,0.055876,0.10065,-0.29750000000000004,-1.715,0.805,-0.46799181525869626,0.08243203741596025,-0.2069570301081555
1745336839.5613544,1.02907,0.060146,0.110776,1.1725,-1.61,4.0075,-0.46857643963753287,0.08155510084770536,-0.20169541069862612
1745336839.571473,1.000644,0.09333,0.10126,-1.05,-0.8225000000000001,0.49000000000000005,-0.4697456883952061,0.08593978368897984,-0.20608009353990062
1745336839.5780509,1.006256,0.060511999999999996,0.101504,0.3325,-0.6300000000000001,0.28,-0.4671148786904414,0.08564747149956153,-0.2081262788658287
1745336839.5813122,0.999302,0.066612,0.10406599999999999,0.45500000000000007,0.4025,0.29750000000000004,-0.47208418591055246,0.08184741303712365,-0.2081262788658287
1745336839.5845551,0.99796,0.063074,0.10736,0.43750000000000006,-0.2625,0.43750000000000006,-0.47208418591055246,0.08184741303712365,-0.2081262788658287
1745336839.5878167,1.000156,0.06222,0.10113799999999999,-1.2600000000000002,-0.07,0.15750000000000003,-0.46799181525869626,0.08477053493130664,-0.20140309850920785
1745336839.5911362,0.99857,0.06222,0.102236,-0.665,-0.31500000000000006,0.21000000000000002,-0.46799181525869626,0.08477053493130664,-0.20140309850920785
1745336839.594253,1.004304,0.059414,0.103578,-3.9550000000000005,-1.0150000000000001,-0.035,-0.4703303127740427,0.08272434960537854,-0.20111078631978954
1745336839.5972755,1.003816,0.032574,0.09943,-0.6125,-1.0325000000000002,0.43750000000000006,-0.4703303127740427,0.08272434960537854,-0.20111078631978954
1745336839.600284,0.997594,0.06161,0.095526,0.43750000000000006,-1.33,0.15750000000000003,-0.4674071908798597,0.08213972522654195,-0.20432622040339082
1745336839.6032553,1.028826,0.070394,0.10431,-0.3325,-1.3825,-3.6750000000000003,-0.4674071908798597,0.08213972522654195,-0.20432622040339082
1745336839.6062074,1.000156,0.063074,0.110776,-0.24500000000000002,-1.3825,0.052500000000000005,-0.4688687518269512,0.08184741303712365,-0.20198772288804442
1745336839.6100836,0.998448,0.065148,0.103944,-1.0675000000000001,-0.052500000000000005,-0.8400000000000001,-0.4688687518269512,0.08184741303712365,-0.20198772288804442
1745336839.6143298,0.99613,0.05856,0.105042,-0.9275000000000001,-0.43750000000000006,-0.7875000000000001,-0.46799181525869626,0.08330897398421515,-0.20374159602455422
1745336839.6178288,1.001132,0.09235399999999999,0.10614,-1.435,0.31500000000000006,4.095000000000001,-0.46799181525869626,0.08506284712072494,-0.20374159602455422
1745336839.6209524,0.9971059999999999,0.063074,0.10431,0.07,0.12250000000000001,-0.43750000000000006,-0.4688687518269512,0.08506284712072494,-0.20374159602455422
1745336839.6239789,0.9940559999999999,0.066368,0.10406599999999999,0.21000000000000002,0.31500000000000006,0.47250000000000003,-0.4688687518269512,0.08506284712072494,-0.20374159602455422
1745336839.6301572,0.99918,0.061121999999999996,0.10699399999999999,3.8675,0.5425000000000001,0.29750000000000004,-0.47325343466822567,0.08213972522654195,-0.20286465945629933
1745336839.6332467,0.999302,0.06161,0.10492,-1.1025,-0.0175,-0.3325,-0.47354574685764395,0.08272434960537854,-0.20432622040339082
1745336839.6364248,1.004426,0.06588,0.105164,-0.035,-1.2600000000000002,0.7000000000000001,-0.47354574685764395,0.08272434960537854,-0.20432622040339082
1745336839.6413045,0.96929,0.060268,0.101992,-0.052500000000000005,-1.54,0.28,-0.4744226834258989,0.08272434960537854,-0.20140309850920785
1745336839.644901,0.997472,0.061244,0.101504,-0.77,-3.8675,-0.47250000000000003,-0.4697456883952061,0.08155510084770536,-0.20403390821397252
1745336839.6483474,1.000156,0.062586,0.100772,-0.6300000000000001,0.43750000000000006,-0.385,-0.4697456883952061,0.08155510084770536,-0.20403390821397252
1745336839.6515582,0.998692,0.058926,0.10126,-0.28,-1.3650000000000002,0.7175,-0.4694533762057878,0.08389359836305174,-0.20432622040339082
1745336839.6548314,0.997838,0.059292,0.106262,-0.17500000000000002,-1.2950000000000002,0.5075000000000001,-0.4694533762057878,0.08389359836305174,-0.20432622040339082
1745336839.6581008,1.000278,0.060268,0.10553,-0.28,-0.9100000000000001,0.035,-0.4674071908798597,0.08623209587839813,-0.20286465945629933
1745336839.661324,1.001986,0.062586,0.10406599999999999,0.8400000000000001,3.6575,-0.1925,-0.4674071908798597,0.08623209587839813,-0.20286465945629933
1745336839.6644409,0.999424,0.06405,0.10553,1.0675000000000001,0.08750000000000001,0.29750000000000004,-0.4682841274481146,0.08535515931014323,-0.2069570301081555
1745336839.6674526,1.000644,0.034526,0.10187,0.49000000000000005,-0.7175,-0.10500000000000001,-0.4682841274481146,0.08535515931014323,-0.2069570301081555
1745336839.6704283,0.968436,0.067466,0.10126,0.10500000000000001,-1.225,-3.9025000000000003,-0.4682841274481146,0.08564747149956153,-0.20403390821397252
1745336839.673403,0.973194,0.06478199999999999,0.10614,-0.3325,-1.0850000000000002,0.525,-0.4703303127740427,0.08564747149956153,-0.20403390821397252
1745336839.6775117,0.99735,0.067222,0.103212,0.29750000000000004,-1.0850000000000002,0.0175,-0.4703303127740427,0.08564747149956153,-0.20403390821397252
1745336839.6853256,0.99674,0.060146,0.105408,0.31500000000000006,2.5375,-0.7000000000000001,-0.4712072493422976,0.08126278865828705,-0.2069570301081555
1745336839.6886528,0.9977159999999999,0.063684,0.09943,-0.12250000000000001,0.8225000000000001,-0.42000000000000004,-0.4712072493422976,0.08126278865828705,-0.2069570301081555
1745336839.6919057,0.9977159999999999,0.066368,0.10309,4.0425,0.0175,0.77,-0.47208418591055246,0.07980122771119556,-0.20198772288804442
1745336839.6951716,1.00284,0.066856,0.108336,-0.24500000000000002,-4.025,0.525,-0.47208418591055246,0.07980122771119556,-0.20198772288804442
1745336839.6984234,1.002108,0.062586,0.107726,0.7525000000000001,-1.8025000000000002,0.10500000000000001,-0.47062262496346097,0.07980122771119556,-0.2057877813504823
1745336839.7016408,0.998692,0.062098,0.106262,-0.12250000000000001,0.42000000000000004,-0.4025,-0.47062262496346097,0.07980122771119556,-0.2057877813504823
1745336839.7047555,0.997838,0.059657999999999996,0.10248,0.7525000000000001,-0.8575,0.07,-0.46857643963753287,0.08009353990061385,-0.19994153756211633
1745336839.7078567,0.969656,0.060756,0.106262,-0.8575,-1.4700000000000002,0.5775,-0.46857643963753287,0.08009353990061385,-0.19994153756211633
1745336839.7108576,1.00284,0.066612,0.102724,-1.2075,-1.9250000000000003,0.052500000000000005,-0.47354574685764395,0.08067816427945046,-0.20198772288804442
1745336839.7137952,1.001986,0.05978,0.101016,1.3825,-1.4175000000000002,0.14,-0.47354574685764395,0.08067816427945046,-0.20198772288804442
1745336839.7174044,0.998814,0.060878,0.103944,1.0150000000000001,3.7100000000000004,0.10500000000000001,-0.4691610640163695,0.08155510084770536,-0.19234142063724058
1745336839.722128,1.00223,0.067222,0.107116,0.21000000000000002,0.15750000000000003,0.1925,-0.4691610640163695,0.08155510084770536,-0.19234142063724058
1745336839.7256625,1.000278,0.061732,0.099796,0.5075000000000001,-0.8575,-0.10500000000000001,-0.4694533762057878,0.08535515931014323,-0.20169541069862612
1745336839.72881,1.000034,0.03172,0.10638399999999999,-0.035,-0.9450000000000001,0.8925000000000001,-0.4694533762057878,0.08535515931014323,-0.20169541069862612
1745336839.7319806,0.9958859999999999,0.062342,0.10699399999999999,1.2775,3.7275000000000005,0.385,-0.47149956153171585,0.08477053493130664,-0.19701841566793335
1745336839.7384832,0.9989359999999999,0.035136,0.102358,0.49000000000000005,0.07,-0.15750000000000003,-0.47062262496346097,0.08155510084770536,-0.20140309850920785
1745336839.7416804,1.000156,0.065514,0.109678,0.9275000000000001,-0.07,0.7175,-0.47062262496346097,0.08155510084770536,-0.20140309850920785
1745336839.7447667,1.000278,0.066368,0.10760399999999999,-0.1925,-0.28,0.5775,-0.47003800058462436,0.08389359836305174,-0.20286465945629933
1745336839.7478888,0.99857,0.062342,0.103822,3.3075,-0.56,-0.47250000000000003,-0.47003800058462436,0.08389359836305174,-0.20286465945629933
1745336839.7509794,1.002596,0.056608,0.10577399999999999,-0.77,-0.5775,0.7525000000000001,-0.4709149371528793,0.08184741303712365,-0.20286465945629933
1745336839.7540364,1.029436,0.053801999999999996,0.103334,-0.56,-0.6300000000000001,0.42000000000000004,-0.4709149371528793,0.08184741303712365,-0.20286465945629933
1745336839.7581565,1.00223,0.06709999999999999,0.106262,-0.525,-0.8575,-0.17500000000000002,-0.4723764980999708,0.08097047646886875,-0.20257234726688103
1745336839.762405,1.003694,0.09211,0.106628,-0.08750000000000001,3.6575,0.10500000000000001,-0.4723764980999708,0.08097047646886875,-0.20257234726688103
1745336839.7658832,0.995032,0.059414,0.10431,0.0,-4.025,-0.17500000000000002,-0.4697456883952061,0.08184741303712365,-0.20257234726688103
1745336839.7689505,0.995154,0.061975999999999996,0.097478,0.0,-0.5775,0.8575,-0.4697456883952061,0.08184741303712365,-0.20257234726688103
1745336839.7720838,1.001132,0.032452,0.104188,0.7525000000000001,-0.77,-0.28,-0.47296112247880734,0.08272434960537854,-0.20198772288804442
1745336839.775272,1.002962,0.06161,0.107848,0.10500000000000001,-0.8400000000000001,-0.7000000000000001,-0.47296112247880734,0.08272434960537854,-0.20198772288804442
1745336839.7784255,0.99796,0.06649,0.104798,1.2775,-0.49000000000000005,0.7175,-0.47705349313066353,0.08447822274188833,-0.19818766442560654
1745336839.7815,0.9681919999999999,0.063318,0.10614,-0.052500000000000005,-1.05,4.2,-0.47705349313066353,0.08447822274188833,-0.19818766442560654
1745336839.7844853,0.99979,0.063684,0.107482,-1.2425000000000002,-0.805,-0.56,-0.47705349313066353,0.08477053493130664,-0.20228003507746273
1745336839.7875078,1.002962,0.063318,0.100284,-0.12250000000000001,3.6750000000000003,0.5775,-0.47705349313066353,0.08477053493130664,-0.20228003507746273
1745336839.793476,1.005646,0.06588,0.10492,-4.025,0.035,0.0,-0.47471499561531716,0.08506284712072494,-0.19847997661502484
1745336839.7975729,1.003328,0.06222,0.100894,0.8225000000000001,-0.3325,0.6125,-0.47676118094124526,0.08652440806781643,-0.19760304004676996
1745336839.8019187,0.996008,0.06039,0.10406599999999999,0.35000000000000003,-0.8575,0.0,-0.47676118094124526,0.08652440806781643,-0.19994153756211633
1745336839.805394,0.9983259999999999,0.062708,0.10638399999999999,-0.3325,0.9800000000000001,4.445,-0.47471499561531716,0.08243203741596025,-0.19994153756211633
1745336839.8084724,0.9958859999999999,0.066124,0.10736,1.0850000000000002,0.6475000000000001,-0.5075000000000001,-0.47471499561531716,0.08243203741596025,-0.20169541069862612
1745336839.8115876,0.9952759999999999,0.057583999999999996,0.100284,0.052500000000000005,0.5425000000000001,0.47250000000000003,-0.47003800058462436,0.08652440806781643,-0.20169541069862612
1745336839.8148046,1.003084,0.06405,0.11041,0.5950000000000001,0.9800000000000001,4.3925,-0.47003800058462436,0.08652440806781643,-0.20169541069862612
1745336839.8179889,0.998692,0.06478199999999999,0.10065,-1.12,-0.77,-0.45500000000000007,-0.47003800058462436,0.08506284712072494,-0.20023384975153463
1745336839.8210692,0.9964959999999999,0.068808,0.102724,-0.3325,-1.0325000000000002,0.7000000000000001,-0.47003800058462436,0.08506284712072494,-0.20023384975153463
1745336839.8240752,0.998814,0.06161,0.103334,0.14,-0.9625000000000001,0.1925,-0.4723764980999708,0.08593978368897984,-0.20461853259280913
1745336839.8271098,1.0065,0.06893,0.10577399999999999,0.2625,-1.4175000000000002,-0.035,-0.4723764980999708,0.08593978368897984,-0.20461853259280913
1745336839.8301218,1.005646,0.06527,0.102236,-0.36750000000000005,4.0425,0.525,-0.47296112247880734,0.08418591055247004,-0.20315697164571764
1745336839.833136,0.999668,0.05856,0.10553,0.15750000000000003,-0.28,-0.08750000000000001,-0.47296112247880734,0.08418591055247004,-0.20315697164571764
1745336839.837185,1.001376,0.064904,0.10174799999999999,-0.17500000000000002,-0.9100000000000001,4.165,-0.4694533762057878,0.08681672025723473,-0.19994153756211633
1745336839.841533,0.9946659999999999,0.062952,0.105042,-4.025,-0.5775,-0.1925,-0.4694533762057878,0.08681672025723473,-0.20608009353990062
1745336839.8480453,1.005402,0.060878,0.101016,-0.6125,-0.15750000000000003,0.0,-0.47062262496346097,0.08272434960537854,-0.20228003507746273
1745336839.8513432,0.996008,0.06478199999999999,0.103822,0.31500000000000006,-0.052500000000000005,0.22750000000000004,-0.47208418591055246,0.08740134463607133,-0.20228003507746273
1745336839.8546026,1.026264,0.062708,0.101626,-0.24500000000000002,-0.10500000000000001,0.035,-0.47208418591055246,0.08740134463607133,-0.20315697164571764
1745336839.8577874,0.998814,0.062586,0.10431,0.43750000000000006,-1.1900000000000002,0.10500000000000001,-0.4723764980999708,0.08126278865828705,-0.20315697164571764
1745336839.8608723,0.9964959999999999,0.05978,0.104432,1.1375000000000002,-1.33,0.08750000000000001,-0.4723764980999708,0.08126278865828705,-0.20315697164571764
1745336839.8638759,1.028826,0.067222,0.10345599999999999,-0.42000000000000004,-1.61,-3.6750000000000003,-0.4738380590470623,0.08272434960537854,-0.19643379128909674
1745336839.8669093,0.996618,0.05917,0.099674,-0.6125,-0.9450000000000001,0.665,-0.4738380590470623,0.08272434960537854,-0.19643379128909674
1745336839.8698869,0.9971059999999999,0.064416,0.106506,0.8225000000000001,-4.3925,-0.22750000000000004,-0.4703303127740427,0.07980122771119556,-0.19643379128909674
1745336839.8728888,1.006622,0.06709999999999999,0.10248,0.07,-0.49000000000000005,0.525,-0.4703303127740427,0.07980122771119556,-0.19643379128909674
1745336839.8769424,1.003816,0.067832,0.1098,1.33,-0.56,1.1025,-0.4703303127740427,0.08213972522654195,-0.19818766442560654
1745336839.8811476,1.0304119999999999,0.06344,0.105164,0.385,0.36750000000000005,-0.052500000000000005,-0.4703303127740427,0.08272434960537854,-0.19701841566793335
1745336839.8846316,1.003938,0.060878,0.107726,1.2600000000000002,-0.47250000000000003,-0.36750000000000005,-0.4764688687518269,0.08272434960537854,-0.19701841566793335
1745336839.8877437,1.000522,0.06283,0.108336,2.1350000000000002,-0.8925000000000001,0.9800000000000001,-0.4764688687518269,0.08213972522654195,-0.20140309850920785
1745336839.8908994,1.000888,0.069296,0.10492,-0.3325,-1.3125000000000002,0.43750000000000006,-0.47354574685764395,0.08213972522654195,-0.20140309850920785
1745336839.8940854,1.003328,0.058316,0.10248,-1.3475000000000001,0.31500000000000006,-0.5775,-0.47354574685764395,0.08213972522654195,-0.19643379128909674
1745336839.90042,0.997594,0.062952,0.105286,0.31500000000000006,-0.49000000000000005,1.0325000000000002,-0.4738380590470623,0.08126278865828705,-0.19643379128909674
1745336839.9034972,0.9940559999999999,0.033062,0.097966,-1.155,-0.5775,-0.665,-0.47500730780473543,0.07892429114294067,-0.20286465945629933
1745336839.906525,1.001498,0.064294,0.108946,1.5575,-0.2625,-3.4475000000000002,-0.47500730780473543,0.07892429114294067,-0.20286465945629933
1745336839.9095023,0.99979,0.061854,0.107848,0.29750000000000004,0.36750000000000005,0.5425000000000001,-0.47208418591055246,0.08243203741596025,-0.20111078631978954
1745336839.912521,0.996252,0.064538,0.110044,-1.4875,-3.7450000000000006,-0.385,-0.47208418591055246,0.08243203741596025,-0.20111078631978954
1745336839.9164739,0.999668,0.067954,0.10760399999999999,-0.035,-0.8575,0.24500000000000002,-0.47559193218357204,0.08155510084770536,-0.19526454253142356
1745336839.9207544,1.00223,0.06417199999999999,0.10992199999999999,-0.7175,-0.77,0.22750000000000004,-0.47559193218357204,0.08243203741596025,-0.20052616194095294
1745336839.9242692,1.003206,0.058926,0.102968,-0.47250000000000003,-0.07,-0.035,-0.4682841274481146,0.08243203741596025,-0.20052616194095294
1745336839.927371,1.005646,0.06417199999999999,0.096502,-0.47250000000000003,-0.9625000000000001,0.28,-0.4712072493422976,0.08067816427945046,-0.19701841566793335
1745336839.9304588,1.000766,0.092476,0.10284599999999999,-0.22750000000000004,-1.5050000000000001,0.28,-0.4712072493422976,0.08067816427945046,-0.19701841566793335
1745336839.9337034,0.99735,0.06222,0.10638399999999999,0.07,0.7000000000000001,-0.035,-0.4712072493422976,0.08067816427945046,-0.20052616194095294
1745336839.9369006,1.002352,0.092964,0.105164,0.49000000000000005,-0.08750000000000001,0.42000000000000004,-0.4703303127740427,0.08009353990061385,-0.20052616194095294
1745336839.9399831,0.9989359999999999,0.061366,0.099674,-0.525,3.99,0.08750000000000001,-0.4703303127740427,0.08009353990061385,-0.20052616194095294
1745336839.9429762,1.001742,0.066856,0.10797,-1.2425000000000002,0.36750000000000005,-0.052500000000000005,-0.47325343466822567,0.08009353990061385,-0.19760304004676996
1745336839.94598,1.000156,0.065514,0.104798,-4.095000000000001,0.14,0.15750000000000003,-0.47325343466822567,0.08009353990061385,-0.19760304004676996
1745336839.9489844,0.998448,0.064904,0.10345599999999999,0.0175,-0.21000000000000002,0.035,-0.47149956153171585,0.08360128617363344,-0.20257234726688103
1745336839.956035,0.998204,0.059414,0.098698,-0.6125,0.08750000000000001,-0.29750000000000004,-0.47471499561531716,0.08038585209003216,-0.19789535223618826
1745336839.960972,1.000278,0.066124,0.104188,0.35000000000000003,-0.5775,-0.08750000000000001,-0.47266881028938906,0.08184741303712365,-0.20432622040339082
1745336839.9651585,0.997838,0.065514,0.102968,-0.385,-0.49000000000000005,0.3325,-0.47266881028938906,0.08184741303712365,-0.20432622040339082
1745336839.968627,1.005646,0.062708,0.102968,0.052500000000000005,-0.24500000000000002,0.0,-0.47471499561531716,0.08184741303712365,-0.19994153756211633
1745336839.972213,0.999058,0.056242,0.105408,0.5075000000000001,-0.14,0.1925,-0.47471499561531716,0.08184741303712365,-0.19994153756211633
1745336839.9759078,0.99796,0.06466,0.10699399999999999,0.15750000000000003,-0.47250000000000003,-0.035,-0.47529961999415377,0.07863197895352236,-0.20403390821397252
1745336839.9794025,1.000644,0.064416,0.106262,0.15750000000000003,0.56,0.29750000000000004,-0.47529961999415377,0.07863197895352236,-0.20403390821397252
1745336839.9827762,0.998692,0.065026,0.1037,-4.375,0.21000000000000002,0.052500000000000005,-0.47266881028938906,0.08038585209003216,-0.21134171294943
1745336839.986226,0.996618,0.061975999999999996,0.103578,0.5950000000000001,-0.3325,-0.385,-0.47266881028938906,0.08038585209003216,-0.20228003507746273
1745336839.9895043,1.001254,0.060146,0.10406599999999999,0.7350000000000001,-0.7000000000000001,-3.6400000000000006,-0.47559193218357204,0.07629348143817598,-0.20228003507746273
1745336839.9927816,1.002474,0.058804,0.103944,3.7100000000000004,-0.14,0.28,-0.47559193218357204,0.07629348143817598,-0.20169541069862612
1745336839.9984071,0.998692,0.05917,0.107482,0.31500000000000006,-0.12250000000000001,-0.1925,-0.4694533762057878,0.07746273019584916,-0.20169541069862612
1745336840.0026777,0.9958859999999999,0.061488,0.105652,-4.48,-1.5225000000000002,-0.43750000000000006,-0.4694533762057878,0.08184741303712365,-0.20023384975153463
1745336840.008314,1.000766,0.060024,0.10187,-0.22750000000000004,1.12,-0.12250000000000001,-0.4723764980999708,0.08126278865828705,-0.20286465945629933
1745336840.0120368,1.000888,0.063684,0.105408,0.4025,-1.4875,0.3325,-0.4723764980999708,0.08126278865828705,-0.20286465945629933
1745336840.0157375,0.998814,0.09272,0.101016,0.1925,1.3125000000000002,0.665,-0.4744226834258989,0.08038585209003216,-0.20023384975153463
1745336840.0192459,0.9977159999999999,0.06478199999999999,0.109678,0.0,1.1725,-3.6050000000000004,-0.4744226834258989,0.08038585209003216,-0.20140309850920785
1745336840.0226362,0.9995459999999999,0.09113399999999999,0.107726,-0.5775,-1.8375000000000001,0.7525000000000001,-0.47354574685764395,0.07950891552177726,-0.20140309850920785
1745336840.0259705,1.001986,0.063684,0.104798,0.43750000000000006,-0.47250000000000003,0.7175,-0.47354574685764395,0.08009353990061385,-0.20081847413037124
1745336840.0291705,1.00101,0.064904,0.10675,0.7875000000000001,-1.4875,4.357500000000001,-0.4764688687518269,0.08009353990061385,-0.20081847413037124
1745336840.0325336,1.000156,0.063074,0.106506,-0.7350000000000001,1.5225000000000002,-0.1925,-0.4764688687518269,0.08243203741596025,-0.19935691318327975
1745336840.0371342,1.000156,0.090768,0.107238,-0.525,-0.525,0.56,-0.47325343466822567,0.08243203741596025,-0.19935691318327975
1745336840.0409575,0.998448,0.064538,0.100284,0.5075000000000001,-0.805,0.6300000000000001,-0.47266881028938906,0.07950891552177726,-0.19263373282665888
1745336840.044757,0.998814,0.062952,0.103212,-0.47250000000000003,-0.6300000000000001,0.0,-0.47266881028938906,0.07950891552177726,-0.19263373282665888
1745336840.0481215,1.000278,0.062464,0.104432,-0.28,0.12250000000000001,-0.5075000000000001,-0.47325343466822567,0.08213972522654195,-0.19731072785735165
1745336840.0514183,0.9971059999999999,0.06405,0.10126,-0.43750000000000006,-0.29750000000000004,-2.9575000000000005,-0.47325343466822567,0.08213972522654195,-0.19731072785735165
1745336840.0547981,0.99369,0.064416,0.105164,-3.8500000000000005,-0.07,1.05,-0.47062262496346097,0.08097047646886875,-0.19760304004676996
1745336840.0611985,1.001132,0.063196,0.107482,-0.1925,-0.805,0.08750000000000001,-0.47266881028938906,0.08330897398421515,-0.19994153756211633
1745336840.0655982,0.998814,0.062952,0.10699399999999999,-0.14,-0.8925000000000001,-0.035,-0.47266881028938906,0.08301666179479684,-0.20111078631978954
1745336840.0697408,0.997838,0.060756,0.10614,0.0175,-3.9550000000000005,0.3325,-0.47003800058462436,0.08301666179479684,-0.20111078631978954
1745336840.0738988,0.999424,0.06417199999999999,0.105164,0.1925,0.525,0.56,-0.467699503069278,0.08213972522654195,-0.19643379128909674
1745336840.0775049,0.99735,0.063318,0.096502,-0.6300000000000001,-1.5050000000000001,0.665,-0.467699503069278,0.08213972522654195,-0.19643379128909674
1745336840.0810833,1.00223,0.062586,0.108824,-0.6825000000000001,-0.24500000000000002,0.10500000000000001,-0.47149956153171585,0.08243203741596025,-0.20315697164571764
1745336840.0846257,0.99491,0.06527,0.110166,0.49000000000000005,1.0675000000000001,0.1925,-0.47149956153171585,0.08243203741596025,-0.20315697164571764
1745336840.0880806,1.00162,0.064416,0.101382,0.7525000000000001,-0.49000000000000005,0.052500000000000005,-0.47062262496346097,0.08213972522654195,-0.20169541069862612
1745336840.0913727,1.002596,0.06222,0.10248,-0.42000000000000004,-0.1925,0.08750000000000001,-0.47062262496346097,0.08213972522654195,-0.20169541069862612
1745336840.0946896,0.998082,0.067466,0.103578,0.45500000000000007,-0.805,0.052500000000000005,-0.4717918737211342,0.08009353990061385,-0.19847997661502484
1745336840.0979252,0.997838,0.062464,0.101992,3.9200000000000004,0.21000000000000002,0.17500000000000002,-0.4717918737211342,0.08009353990061385,-0.19847997661502484
1745336840.1011927,0.9983259999999999,0.062586,0.110654,0.14,-0.15750000000000003,-0.052500000000000005,-0.4709149371528793,0.08360128617363344,-0.20081847413037124
1745336840.1079726,1.00284,0.063928,0.10931199999999999,-0.805,-1.4525000000000001,0.49000000000000005,-0.46799181525869626,0.08155510084770536,-0.19351066939491376
1745336840.114636,0.996862,0.066856,0.104798,-0.08750000000000001,0.5950000000000001,0.385,-0.4697456883952061,0.08243203741596025,-0.20052616194095294
1745336840.1181726,1.000156,0.061244,0.101016,0.6300000000000001,1.12,0.24500000000000002,-0.4697456883952061,0.08126278865828705,-0.20286465945629933
1745336840.1217813,1.001376,0.062098,0.10699399999999999,1.0675000000000001,-1.155,0.42000000000000004,-0.4688687518269512,0.08126278865828705,-0.20286465945629933
1745336840.125518,0.99552,0.065514,0.10174799999999999,-1.2075,-0.1925,0.35000000000000003,-0.4691610640163695,0.08681672025723473,-0.20432622040339082
1745336840.129077,0.99857,0.064904,0.10345599999999999,-1.3475000000000001,-0.0175,0.42000000000000004,-0.4691610640163695,0.08681672025723473,-0.20432622040339082
1745336840.1324995,0.999058,0.031232,0.097478,-0.24500000000000002,-0.35000000000000003,0.0,-0.4668225665010231,0.08097047646886875,-0.20198772288804442
1745336840.1359673,0.998082,0.061244,0.113216,0.5950000000000001,0.17500000000000002,0.08750000000000001,-0.4668225665010231,0.08097047646886875,-0.20198772288804442
1745336840.1394057,1.002352,0.066856,0.10858,4.1825,0.36750000000000005,0.36750000000000005,-0.47003800058462436,0.08418591055247004,-0.205495469161064
1745336840.1432712,1.001986,0.062464,0.103944,-0.42000000000000004,-0.1925,-0.035,-0.47003800058462436,0.08418591055247004,-0.205495469161064
1745336840.148984,0.998692,0.058438,0.105652,-0.24500000000000002,-1.6450000000000002,0.22750000000000004,-0.47003800058462436,0.08623209587839813,-0.2107570885705934
1745336840.1529174,0.99552,0.062464,0.112728,-0.22750000000000004,-0.77,0.8925000000000001,-0.4682841274481146,0.08535515931014323,-0.2081262788658287
1745336840.1566145,0.970998,0.061854,0.105042,-0.17500000000000002,0.035,-3.5700000000000003,-0.4682841274481146,0.08535515931014323,-0.2081262788658287
1745336840.1600358,0.996374,0.06588,0.10174799999999999,-0.17500000000000002,0.7875000000000001,0.6125,-0.4712072493422976,0.08447822274188833,-0.20637240572931892
1745336840.1633291,0.99918,0.062586,0.106628,3.99,-1.2425000000000002,-0.1925,-0.4712072493422976,0.08447822274188833,-0.20637240572931892
1745336840.1689384,0.998204,0.069662,0.108702,0.10500000000000001,1.0150000000000001,0.0,-0.4674071908798597,0.08506284712072494,-0.2090032154340836
1745336840.1732829,1.004914,0.061488,0.10004,0.385,-2.0650000000000004,0.36750000000000005,-0.47003800058462436,0.08535515931014323,-0.21251096170710318
1745336840.1782172,1.00406,0.06283,0.101382,-0.24500000000000002,0.4025,0.6300000000000001,-0.46799181525869626,0.08155510084770536,-0.20461853259280913
1745336840.1823792,0.996252,0.06539199999999999,0.107848,0.24500000000000002,-0.525,-0.035,-0.46799181525869626,0.08155510084770536,-0.20461853259280913
1745336840.185746,0.99796,0.061975999999999996,0.104432,0.24500000000000002,1.3475000000000001,0.665,-0.47003800058462436,0.08681672025723473,-0.2057877813504823
1745336840.189311,0.998692,0.093086,0.100894,0.5425000000000001,-0.4025,0.47250000000000003,-0.47003800058462436,0.08681672025723473,-0.2057877813504823
1745336840.192866,1.00284,0.065758,0.1098,0.5075000000000001,0.0,0.385,-0.4764688687518269,0.08535515931014323,-0.21046477638117508
1745336840.196307,0.99979,0.06283,0.107238,0.9450000000000001,1.12,0.31500000000000006,-0.4764688687518269,0.08535515931014323,-0.21046477638117508
1745336840.1995652,1.002352,0.066002,0.100894,0.5075000000000001,-0.6825000000000001,-0.14,-0.47325343466822567,0.08360128617363344,-0.2078339666764104
1745336840.202888,1.00345,0.063196,0.10284599999999999,0.7000000000000001,-4.2700000000000005,-0.12250000000000001,-0.47325343466822567,0.08360128617363344,-0.2078339666764104
1745336840.2060332,0.9977159999999999,0.064904,0.103822,0.14,-1.7850000000000001,0.1925,-0.47208418591055246,0.08477053493130664,-0.2095878398129202
1745336840.2092965,0.99552,0.062098,0.106628,0.7875000000000001,-1.4700000000000002,-0.08750000000000001,-0.47208418591055246,0.08477053493130664,-0.2095878398129202
1745336840.2161367,1.001986,0.060634,0.10736,-0.035,-0.2625,0.43750000000000006,-0.47529961999415377,0.08623209587839813,-0.205495469161064
1745336840.2221282,0.993934,0.06588,0.106018,-0.035,-0.6300000000000001,-0.035,-0.4717918737211342,0.08389359836305174,-0.2052031569716457
1745336840.2256768,0.998082,0.060268,0.10248,-0.7175,0.24500000000000002,-0.0175,-0.4764688687518269,0.08652440806781643,-0.2078339666764104
1745336840.229507,1.003938,0.06344,0.101626,0.35000000000000003,-1.3650000000000002,0.10500000000000001,-0.4764688687518269,0.08652440806781643,-0.2078339666764104
1745336840.2331054,0.999058,0.059902,0.103334,-0.8575,1.2950000000000002,0.08750000000000001,-0.47325343466822567,0.08418591055247004,-0.20228003507746273
1745336840.2365036,1.001376,0.064904,0.109678,-1.2075,0.22750000000000004,-0.052500000000000005,-0.47325343466822567,0.08418591055247004,-0.205495469161064
1745336840.2397733,0.997472,0.060511999999999996,0.107238,0.29750000000000004,-1.4700000000000002,-0.5075000000000001,-0.47296112247880734,0.08710903244665302,-0.205495469161064
1745336840.2438805,0.9995459999999999,0.062464,0.099064,-1.2075,0.035,0.49000000000000005,-0.47208418591055246,0.08593978368897984,-0.205495469161064
1745336840.2470937,1.00101,0.06283,0.1037,-0.6825000000000001,0.07,0.36750000000000005,-0.47208418591055246,0.08593978368897984,-0.205495469161064
1745336840.2506988,0.99796,0.06283,0.10345599999999999,-0.42000000000000004,-0.8925000000000001,-0.14,-0.4697456883952061,0.08272434960537854,-0.2092955276235019
1745336840.2564936,1.002108,0.061488,0.09943,-0.08750000000000001,-1.1025,0.49000000000000005,-0.4697456883952061,0.08477053493130664,-0.20637240572931892
1745336840.2604606,0.998448,0.031476,0.104188,0.052500000000000005,-0.7525000000000001,0.3325,-0.4697456883952061,0.08477053493130664,-0.20637240572931892
1745336840.2637634,0.99857,0.06466,0.105042,-0.12250000000000001,-0.10500000000000001,-0.17500000000000002,-0.4688687518269512,0.08330897398421515,-0.2087109032446653
1745336840.2673378,1.002474,0.062342,0.10284599999999999,-0.9100000000000001,-0.9450000000000001,-0.77,-0.4688687518269512,0.08330897398421515,-0.2087109032446653
1745336840.2738383,1.001742,0.061854,0.105042,4.2875000000000005,-0.35000000000000003,-0.9800000000000001,-0.47705349313066353,0.07980122771119556,-0.2072493422975738
1745336840.2772381,1.000034,0.059536,0.10284599999999999,-0.77,-0.10500000000000001,0.9625000000000001,-0.47354574685764395,0.08330897398421515,-0.2133878982753581
1745336840.2804244,1.003084,0.055265999999999996,0.106506,-0.49000000000000005,-0.8925000000000001,4.0075,-0.47354574685764395,0.08330897398421515,-0.2133878982753581
1745336840.2837315,1.002596,0.063196,0.110044,3.9025000000000003,0.45500000000000007,-0.6125,-0.47149956153171585,0.08389359836305174,-0.20841859105524702
1745336840.2870088,1.003328,0.061,0.101504,-0.36750000000000005,4.1825,-0.385,-0.47149956153171585,0.08389359836305174,-0.20841859105524702
1745336840.2910242,1.002596,0.063074,0.102602,0.10500000000000001,-0.43750000000000006,-0.035,-0.47062262496346097,0.08009353990061385,-0.21046477638117508
1745336840.295966,0.994422,0.066124,0.106506,-0.1925,-0.7525000000000001,0.22750000000000004,-0.47062262496346097,0.08330897398421515,-0.20374159602455422
1745336840.2999597,1.000156,0.063684,0.104798,-0.14,-0.7175,0.31500000000000006,-0.47296112247880734,0.08330897398421515,-0.20374159602455422
1745336840.3032672,1.000766,0.063928,0.10992199999999999,0.5425000000000001,-0.7000000000000001,0.42000000000000004,-0.4709149371528793,0.08447822274188833,-0.20403390821397252
1745336840.306832,1.026386,0.062586,0.108336,0.10500000000000001,-0.5950000000000001,0.36750000000000005,-0.4709149371528793,0.08447822274188833,-0.20403390821397252
1745336840.3103905,1.001986,0.061366,0.09943,-0.42000000000000004,0.5775,0.56,-0.46799181525869626,0.08213972522654195,-0.20841859105524702
1745336840.3138924,1.0004,0.060756,0.108458,0.10500000000000001,-0.9100000000000001,0.35000000000000003,-0.46799181525869626,0.08213972522654195,-0.20841859105524702
1745336840.3172588,1.000644,0.065514,0.097112,0.6825000000000001,-0.6300000000000001,0.7175,-0.4694533762057878,0.08155510084770536,-0.20286465945629933
1745336840.3205385,1.001498,0.059902,0.10345599999999999,3.8150000000000004,0.8750000000000001,0.052500000000000005,-0.4694533762057878,0.08155510084770536,-0.20286465945629933
1745336840.3238704,1.00406,0.064904,0.105408,0.1925,-0.07,0.385,-0.47500730780473543,0.08184741303712365,-0.19906460099386145
1745336840.3299162,1.029314,0.066002,0.108946,0.6475000000000001,-0.5425000000000001,3.4475000000000002,-0.4694533762057878,0.08330897398421515,-0.20315697164571764
1745336840.3359349,0.996984,0.062464,0.109434,-0.08750000000000001,0.22750000000000004,1.2950000000000002,-0.4691610640163695,0.08506284712072494,-0.19760304004676996
1745336840.3399196,0.998448,0.06478199999999999,0.10004,0.35000000000000003,-1.6625,0.0,-0.4691610640163695,0.08506284712072494,-0.19760304004676996
1745336840.3432274,0.99796,0.058438,0.101504,0.5950000000000001,0.9625000000000001,-0.6475000000000001,-0.46857643963753287,0.08360128617363344,-0.19994153756211633
1745336840.3469172,0.997228,0.06466,0.103212,-3.9725000000000006,-0.5425000000000001,-0.5075000000000001,-0.46857643963753287,0.08360128617363344,-0.19994153756211633
1745336840.3513076,1.027728,0.065026,0.108214,0.31500000000000006,0.45500000000000007,-0.385,-0.47149956153171585,0.08301666179479684,-0.19818766442560654
1745336840.3548367,1.000156,0.06222,0.09943,0.9450000000000001,-0.21000000000000002,-0.3325,-0.47149956153171585,0.08301666179479684,-0.19818766442560654
1745336840.3581219,0.997472,0.063196,0.10345599999999999,0.6300000000000001,-0.77,-3.6750000000000003,-0.4668225665010231,0.08535515931014323,-0.20198772288804442
1745336840.3613226,1.00223,0.060756,0.103334,1.3825,0.07,0.43750000000000006,-0.4668225665010231,0.08535515931014323,-0.20198772288804442
1745336840.3645742,1.001498,0.059292,0.09820999999999999,1.225,-0.12250000000000001,0.31500000000000006,-0.47062262496346097,0.08360128617363344,-0.19760304004676996
1745336840.3679926,0.998692,0.057218,0.10284599999999999,0.0175,-0.1925,0.6125,-0.47062262496346097,0.08360128617363344,-0.19760304004676996
1745336840.373851,0.995032,0.061121999999999996,0.106628,-0.1925,-0.0175,0.1925,-0.47062262496346097,0.08564747149956153,-0.19292604501607716
1745336840.3809006,0.998692,0.064538,0.100772,0.5950000000000001,-0.77,0.14,-0.47149956153171585,0.08740134463607133,-0.19263373282665888
1745336840.3846283,1.001498,0.057218,0.10577399999999999,0.45500000000000007,0.8925000000000001,-0.31500000000000006,-0.4717918737211342,0.08593978368897984,-0.19555685472084186
1745336840.3883286,0.9995459999999999,0.062586,0.10614,-4.095000000000001,-2.1175,-0.29750000000000004,-0.4717918737211342,0.08535515931014323,-0.19701841566793335
1745336840.3920157,0.997594,0.034404,0.099552,-0.5775,0.7525000000000001,-0.2625,-0.4717918737211342,0.08535515931014323,-0.19701841566793335
1745336840.3953993,1.00406,0.05978,0.097356,0.29750000000000004,1.225,0.0175,-0.467699503069278,0.08477053493130664,-0.19731072785735165
1745336840.3985407,1.001254,0.059657999999999996,0.099552,-0.9100000000000001,1.1725,-0.08750000000000001,-0.467699503069278,0.08477053493130664,-0.19731072785735165
1745336840.4018488,0.998814,0.066124,0.107848,-0.42000000000000004,-0.9625000000000001,0.8925000000000001,-0.47208418591055246,0.08243203741596025,-0.20081847413037124
1745336840.4051464,0.996862,0.06466,0.10406599999999999,-0.24500000000000002,-0.42000000000000004,0.14,-0.47208418591055246,0.08243203741596025,-0.20081847413037124
1745336840.4089959,0.99491,0.059414,0.102114,0.0175,-1.2425000000000002,-3.7275000000000005,-0.46799181525869626,0.08593978368897984,-0.20140309850920785
1745336840.4153976,0.996618,0.061732,0.104188,-0.052500000000000005,-0.7000000000000001,0.77,-0.4709149371528793,0.08710903244665302,-0.2057877813504823
1745336840.4193726,1.005646,0.064416,0.106506,-0.22750000000000004,-0.9450000000000001,-0.08750000000000001,-0.4709149371528793,0.08710903244665302,-0.2057877813504823
1745336840.4228365,0.995398,0.064294,0.10113799999999999,0.10500000000000001,0.17500000000000002,-0.10500000000000001,-0.46799181525869626,0.08681672025723473,-0.19789535223618826
1745336840.4262712,1.000644,0.065148,0.10797,-0.052500000000000005,1.0675000000000001,-0.7525000000000001,-0.46799181525869626,0.08681672025723473,-0.19789535223618826
1745336840.4298263,1.002108,0.062464,0.107726,-3.9725000000000006,-1.435,-0.77,-0.46799181525869626,0.08184741303712365,-0.19789535223618826
1745336840.441729,0.99857,0.06539199999999999,0.102724,-0.6125,-0.5775,-2.9575000000000005,-0.4717918737211342,0.08623209587839813,-0.19789535223618826
1745336840.4455492,0.99857,0.057096,0.10699399999999999,3.4825000000000004,-0.42000000000000004,0.2625,-0.4717918737211342,0.08623209587839813,-0.19789535223618826
1745336840.4491632,1.001742,0.061975999999999996,0.1037,-0.77,-0.385,-0.035,-0.4709149371528793,0.08360128617363344,-0.20257234726688103
1745336840.4565399,0.968314,0.06405,0.10431,0.7000000000000001,-4.357500000000001,0.6125,-0.4723764980999708,0.08564747149956153,-0.20374159602455422
1745336840.4605494,1.000888,0.063928,0.103212,-1.1725,4.2700000000000005,-0.42000000000000004,-0.4723764980999708,0.08623209587839813,-0.20169541069862612
1745336840.4641085,0.995764,0.063806,0.09759999999999999,-0.29750000000000004,-4.077500000000001,-0.525,-0.47325343466822567,0.08623209587839813,-0.20169541069862612
1745336840.4678152,0.997228,0.061244,0.10492,0.21000000000000002,-0.77,-0.77,-0.4694533762057878,0.08301666179479684,-0.20081847413037124
1745336840.4715285,1.000522,0.031842,0.10126,-0.9100000000000001,0.9100000000000001,4.112500000000001,-0.4694533762057878,0.08301666179479684,-0.20081847413037124
1745336840.4750636,1.028216,0.062464,0.101626,-0.24500000000000002,0.36750000000000005,0.8400000000000001,-0.4694533762057878,0.08593978368897984,-0.20111078631978954
1745336840.4784365,0.998082,0.062952,0.102114,0.1925,-0.45500000000000007,0.0,-0.4694533762057878,0.08593978368897984,-0.20111078631978954
1745336840.4821148,1.0004,0.06039,0.102236,0.052500000000000005,0.5950000000000001,0.3325,-0.4712072493422976,0.08827828120432622,-0.20023384975153463
1745336840.4857287,1.00101,0.063196,0.102236,-0.052500000000000005,-4.0425,-0.14,-0.4712072493422976,0.08827828120432622,-0.20023384975153463
1745336840.4898503,0.999058,0.062098,0.10406599999999999,-0.22750000000000004,-1.2775,-0.47250000000000003,-0.4694533762057878,0.08301666179479684,-0.19877228880444314
1745336840.4970937,0.9983259999999999,0.06283,0.10675,0.052500000000000005,0.052500000000000005,1.3125000000000002,-0.4697456883952061,0.08506284712072494,-0.20023384975153463
1745336840.5012958,1.00406,0.064416,0.10699399999999999,-0.42000000000000004,-0.17500000000000002,3.7100000000000004,-0.4682841274481146,0.08506284712072494,-0.20403390821397252
1745336840.5048163,1.00528,0.034159999999999996,0.096868,-0.385,-0.0175,-0.9450000000000001,-0.4682841274481146,0.08506284712072494,-0.20403390821397252
1745336840.508681,1.000034,0.06161,0.10467599999999999,0.385,-1.2075,0.9800000000000001,-0.46857643963753287,0.08535515931014323,-0.20052616194095294
1745336840.5125973,1.000766,0.059047999999999996,0.102114,-0.8575,0.17500000000000002,0.14,-0.46857643963753287,0.08535515931014323,-0.20052616194095294
1745336840.5161576,0.999058,0.06709999999999999,0.10187,-1.3650000000000002,-2.415,-0.24500000000000002,-0.47149956153171585,0.08535515931014323,-0.19731072785735165
1745336840.5195868,1.002718,0.06344,0.103822,-0.035,2.0650000000000004,0.17500000000000002,-0.47149956153171585,0.08535515931014323,-0.20374159602455422
1745336840.52304,0.999302,0.060634,0.106018,0.0175,0.5950000000000001,0.10500000000000001,-0.47208418591055246,0.08798596901490792,-0.20374159602455422
1745336840.526216,0.996862,0.066002,0.103578,-0.6300000000000001,0.21000000000000002,-0.052500000000000005,-0.47208418591055246,0.08798596901490792,-0.20666471791873722
1745336840.5296252,1.001864,0.063684,0.100406,-0.385,-4.112500000000001,-0.35000000000000003,-0.4717918737211342,0.08389359836305174,-0.20666471791873722
1745336840.5355792,1.000034,0.064294,0.105408,0.07,-0.805,-0.8400000000000001,-0.4717918737211342,0.08067816427945046,-0.20169541069862612
1745336840.5397456,0.994544,0.064416,0.107116,-0.385,1.0850000000000002,0.9450000000000001,-0.4723764980999708,0.08477053493130664,-0.20403390821397252
1745336840.543346,0.997472,0.058804,0.10675,-0.29750000000000004,-0.29750000000000004,1.2775,-0.4723764980999708,0.08477053493130664,-0.20403390821397252
1745336840.5499263,0.9694119999999999,0.066612,0.105286,-0.42000000000000004,0.2625,0.77,-0.4697456883952061,0.08330897398421515,-0.19731072785735165
1745336840.5536675,1.000766,0.066368,0.100162,3.7100000000000004,-1.6625,0.9100000000000001,-0.4717918737211342,0.08272434960537854,-0.20286465945629933
1745336840.5572042,1.000278,0.062098,0.10248,0.14,0.665,0.8925000000000001,-0.4717918737211342,0.08272434960537854,-0.20286465945629933
1745336840.560624,1.001986,0.062708,0.103944,-0.17500000000000002,0.5775,0.49000000000000005,-0.4738380590470623,0.08535515931014323,-0.20432622040339082
1745336840.564094,0.998448,0.062464,0.104188,-0.29750000000000004,-1.435,0.21000000000000002,-0.4738380590470623,0.08535515931014323,-0.20432622040339082
1745336840.5678773,1.002108,0.064904,0.104188,-0.10500000000000001,0.665,0.47250000000000003,-0.47354574685764395,0.08593978368897984,-0.20286465945629933
1745336840.573073,1.003206,0.06405,0.10406599999999999,-0.052500000000000005,0.8400000000000001,-0.5075000000000001,-0.478515054077755,0.08330897398421515,-0.2057877813504823
1745336840.5775416,1.001376,0.065514,0.10431,-0.77,-1.4175000000000002,0.5775,-0.478515054077755,0.08330897398421515,-0.2057877813504823
1745336840.5815477,1.00162,0.062586,0.106506,0.2625,2.975,0.10500000000000001,-0.478515054077755,0.08097047646886875,-0.20228003507746273
1745336840.5848172,0.99979,0.069418,0.10174799999999999,0.45500000000000007,2.3625000000000003,0.47250000000000003,-0.478515054077755,0.08097047646886875,-0.20228003507746273
1745336840.587983,1.000156,0.060634,0.10431,-0.12250000000000001,-3.0275000000000003,-0.24500000000000002,-0.4805612394036831,0.08067816427945046,-0.20286465945629933
1745336840.5913303,0.999058,0.059414,0.102968,0.5950000000000001,0.5425000000000001,-3.3775000000000004,-0.4805612394036831,0.08067816427945046,-0.20286465945629933
1745336840.594643,0.991982,0.03172,0.100772,1.5225000000000002,-1.8025000000000002,0.525,-0.4811458637825197,0.08360128617363344,-0.19672610347851505
1745336840.5979319,1.001376,0.06588,0.10431,-0.24500000000000002,2.4850000000000003,0.5075000000000001,-0.4811458637825197,0.08360128617363344,-0.19672610347851505
1745336840.604899,1.001864,0.065148,0.10492,0.052500000000000005,0.1925,3.6925000000000003,-0.47354574685764395,0.08038585209003216,-0.19526454253142356
1745336840.6086395,1.000278,0.065758,0.103944,0.29750000000000004,-1.2950000000000002,0.56,-0.4744226834258989,0.08067816427945046,-0.20461853259280913
1745336840.6119065,0.998814,0.068564,0.106262,0.8750000000000001,2.5375,0.08750000000000001,-0.4744226834258989,0.08067816427945046,-0.20169541069862612
1745336840.615442,1.00101,0.063074,0.10553,0.6475000000000001,0.5425000000000001,0.15750000000000003,-0.47500730780473543,0.08067816427945046,-0.20169541069862612
1745336840.6188636,0.999424,0.062464,0.10284599999999999,0.14,0.17500000000000002,-0.29750000000000004,-0.4688687518269512,0.08330897398421515,-0.19555685472084186
1745336840.6226065,0.995642,0.066246,0.10492,-4.1825,-0.35000000000000003,-0.5775,-0.4688687518269512,0.08330897398421515,-0.19555685472084186
1745336840.6261232,0.999424,0.063318,0.104432,-4.2875000000000005,-0.0175,-0.7000000000000001,-0.47559193218357204,0.08243203741596025,-0.19731072785735165
1745336840.629532,1.000644,0.065514,0.104188,0.21000000000000002,-0.21000000000000002,-0.9975,-0.47559193218357204,0.08243203741596025,-0.19731072785735165
1745336840.6329994,1.003694,0.06222,0.105652,0.14,-0.9450000000000001,-0.9800000000000001,-0.4744226834258989,0.08243203741596025,-0.19584916691026016
1745336840.6362963,1.000888,0.057583999999999996,0.102602,0.7875000000000001,-0.7525000000000001,-3.3775000000000004,-0.4744226834258989,0.08243203741596025,-0.19584916691026016
1745336840.6399913,0.997228,0.065026,0.102968,-0.385,-0.35000000000000003,0.8750000000000001,-0.47500730780473543,0.08389359836305174,-0.20198772288804442
1745336840.645323,0.970266,0.05978,0.10345599999999999,-0.385,-3.9550000000000005,-0.49000000000000005,-0.47471499561531716,0.08243203741596025,-0.19994153756211633
1745336840.6491966,0.996008,0.061854,0.101626,-0.24500000000000002,-0.6125,0.36750000000000005,-0.47471499561531716,0.08243203741596025,-0.19994153756211633
1745336840.653085,1.001498,0.065514,0.112972,-0.28,-2.31,0.77,-0.47208418591055246,0.08301666179479684,-0.20052616194095294
1745336840.6599524,0.99979,0.069296,0.10675,-0.7350000000000001,0.22750000000000004,0.9450000000000001,-0.47617655656240865,0.08330897398421515,-0.19818766442560654
1745336840.6636043,1.0004,0.062708,0.10553,0.5950000000000001,-2.5725000000000002,0.8925000000000001,-0.47617655656240865,0.08330897398421515,-0.19818766442560654
1745336840.6670966,1.001498,0.058804,0.097112,0.6825000000000001,0.8925000000000001,0.77,-0.4709149371528793,0.08740134463607133,-0.19847997661502484
1745336840.6704605,1.002108,0.062708,0.106018,-0.6125,1.2775,0.28,-0.4709149371528793,0.08740134463607133,-0.19847997661502484
1745336840.6738682,0.99979,0.060146,0.103334,-0.77,-3.4475000000000002,0.3325,-0.46799181525869626,0.08564747149956153,-0.20286465945629933
1745336840.677306,1.00101,0.063928,0.10553,-0.1925,-1.3650000000000002,0.052500000000000005,-0.46799181525869626,0.08564747149956153,-0.20286465945629933
1745336840.6835806,1.00101,0.062586,0.107848,-0.49000000000000005,-1.1375000000000002,-0.665,-0.47149956153171585,0.08652440806781643,-0.2052031569716457
1745336840.6877103,0.998204,0.063318,0.108092,0.5775,-0.56,-2.9225000000000003,-0.47062262496346097,0.08506284712072494,-0.20432622040339082
1745336840.6911564,1.004182,0.057583999999999996,0.10004,0.8750000000000001,0.0,1.5050000000000001,-0.47471499561531716,0.08360128617363344,-0.20228003507746273
1745336840.6946435,1.001498,0.031964,0.099674,0.7350000000000001,0.8925000000000001,0.77,-0.47471499561531716,0.08360128617363344,-0.20228003507746273
1745336840.6982043,0.999912,0.06405,0.10675,-0.5775,-0.5775,0.7175,-0.4758842443729904,0.08564747149956153,-0.20491084478222743
1745336840.7017586,0.998448,0.066002,0.102114,-1.4525000000000001,-0.42000000000000004,-3.2025,-0.4758842443729904,0.08564747149956153,-0.20491084478222743
1745336840.7051513,0.998082,0.066124,0.10174799999999999,-1.12,-0.49000000000000005,0.9450000000000001,-0.47763811750950014,0.08593978368897984,-0.20140309850920785
1745336840.708432,0.997228,0.062586,0.103212,-0.385,-0.15750000000000003,0.5775,-0.47763811750950014,0.08593978368897984,-0.20140309850920785
1745336840.7144322,0.9989359999999999,0.061121999999999996,0.108092,0.385,-0.43750000000000006,0.0175,-0.47325343466822567,0.08389359836305174,-0.205495469161064
1745336840.7179813,0.996252,0.063074,0.10614,-3.8500000000000005,-0.49000000000000005,0.1925,-0.47149956153171585,0.08272434960537854,-0.20286465945629933
1745336840.7238805,0.996984,0.064416,0.106262,-0.22750000000000004,-1.225,0.1925,-0.47149956153171585,0.07980122771119556,-0.20666471791873722
1745336840.7276368,0.995398,0.065148,0.102724,-0.1925,-3.3075,0.47250000000000003,-0.4656533177433499,0.07980122771119556,-0.20666471791873722
1745336840.7309346,0.998692,0.06539199999999999,0.106506,0.35000000000000003,-0.24500000000000002,0.35000000000000003,-0.46799181525869626,0.08097047646886875,-0.19935691318327975
1745336840.7343805,1.002108,0.062708,0.10052799999999999,0.31500000000000006,-1.4525000000000001,0.24500000000000002,-0.46799181525869626,0.08097047646886875,-0.19935691318327975
1745336840.7379313,0.999912,0.06039,0.099674,-0.9275000000000001,1.2075,0.24500000000000002,-0.47266881028938906,0.08272434960537854,-0.20432622040339082
1745336840.7414908,1.001498,0.066246,0.103944,-1.0150000000000001,0.28,0.385,-0.47266881028938906,0.08272434960537854,-0.20432622040339082
1745336840.7448807,0.998448,0.060146,0.098576,-0.49000000000000005,-1.7325000000000002,0.47250000000000003,-0.4668225665010231,0.08272434960537854,-0.20315697164571764
1745336840.7482786,1.002718,0.06405,0.103822,-0.6825000000000001,0.15750000000000003,-0.28,-0.4668225665010231,0.08272434960537854,-0.20315697164571764
1745336840.7516432,0.994544,0.061366,0.10760399999999999,-0.6300000000000001,0.2625,0.052500000000000005,-0.4662379421221865,0.08477053493130664,-0.20023384975153463
1745336840.754887,1.00345,0.066856,0.09881999999999999,-0.9625000000000001,-0.0175,0.28,-0.4662379421221865,0.08477053493130664,-0.20023384975153463
1745336840.7585135,1.00284,0.062098,0.108214,3.6575,-0.42000000000000004,-0.22750000000000004,-0.4744226834258989,0.08155510084770536,-0.19994153756211633
1745336840.767661,0.99613,0.064904,0.101504,-0.14,0.21000000000000002,-0.08750000000000001,-0.47325343466822567,0.08067816427945046,-0.20491084478222743
1745336840.7710927,1.005158,0.060146,0.107848,-0.49000000000000005,-0.4025,0.3325,-0.4764688687518269,0.08330897398421515,-0.20608009353990062
1745336840.774541,0.99735,0.06527,0.10553,-3.8500000000000005,0.12250000000000001,0.052500000000000005,-0.4764688687518269,0.08330897398421515,-0.20608009353990062
1745336840.77809,1.000156,0.062952,0.103212,4.2875000000000005,-0.525,0.28,-0.4709149371528793,0.08564747149956153,-0.20374159602455422
1745336840.781659,0.9958859999999999,0.059292,0.10577399999999999,0.14,0.07,0.3325,-0.4709149371528793,0.08564747149956153,-0.20374159602455422
1745336840.7850423,0.9971059999999999,0.061121999999999996,0.09943,0.24500000000000002,0.2625,0.035,-0.47325343466822567,0.08184741303712365,-0.20403390821397252
1745336840.7883003,1.002596,0.066856,0.106506,0.15750000000000003,0.14,-0.29750000000000004,-0.47325343466822567,0.08184741303712365,-0.20403390821397252
1745336840.7916243,1.002718,0.03599,0.09943,0.0,0.1925,0.9975,-0.47149956153171585,0.08360128617363344,-0.2034492838351359
1745336840.794918,0.998692,0.063684,0.103212,0.14,-0.47250000000000003,0.0175,-0.47149956153171585,0.08360128617363344,-0.2034492838351359
1745336840.7984617,0.973804,0.061121999999999996,0.105042,-0.36750000000000005,-0.7525000000000001,-3.2900000000000005,-0.47529961999415377,0.08623209587839813,-0.20023384975153463
1745336840.8036592,1.000766,0.061366,0.103578,-0.5775,-0.07,0.6475000000000001,-0.4744226834258989,0.08126278865828705,-0.20052616194095294
1745336840.8072317,1.004548,0.062952,0.10553,4.0075,-1.0850000000000002,0.24500000000000002,-0.4744226834258989,0.08126278865828705,-0.20052616194095294
1745336840.8106303,1.001498,0.064904,0.1037,0.4025,0.1925,0.0175,-0.4744226834258989,0.08009353990061385,-0.19847997661502484
1745336840.8144119,0.99979,0.06417199999999999,0.103212,-0.43750000000000006,-0.8225000000000001,0.1925,-0.4744226834258989,0.08009353990061385,-0.19847997661502484
1745336840.8212385,0.994422,0.062098,0.104188,-0.08750000000000001,0.07,0.0175,-0.47500730780473543,0.08360128617363344,-0.19847997661502484
1745336840.8247542,0.99552,0.060756,0.10126,4.3925,-2.2750000000000004,0.29750000000000004,-0.47208418591055246,0.08184741303712365,-0.19760304004676996
1745336840.8281667,0.998082,0.061854,0.10760399999999999,0.7000000000000001,1.0150000000000001,0.42000000000000004,-0.47208418591055246,0.08184741303712365,-0.19760304004676996
1745336840.831626,0.99735,0.061854,0.10052799999999999,-0.14,-4.025,0.385,-0.4744226834258989,0.08243203741596025,-0.19994153756211633
1745336840.8350341,1.000278,0.063684,0.10345599999999999,-0.6825000000000001,0.56,0.24500000000000002,-0.4744226834258989,0.08243203741596025,-0.19994153756211633
1745336840.8409653,0.998082,0.062342,0.100284,3.7450000000000006,0.5950000000000001,-0.5075000000000001,-0.47296112247880734,0.08213972522654195,-0.19497223034200525
1745336840.8453188,1.001254,0.061488,0.107848,-1.0150000000000001,-0.6125,-0.36750000000000005,-0.47208418591055246,0.08126278865828705,-0.19672610347851505
1745336840.8492916,0.99552,0.05978,0.111264,0.0,-1.225,0.43750000000000006,-0.47062262496346097,0.07804735457468577,-0.19964922537269805
1745336840.8529465,1.000522,0.062342,0.10187,0.35000000000000003,-0.6825000000000001,0.1925,-0.47062262496346097,0.07804735457468577,-0.19964922537269805
1745336840.857052,0.99918,0.061975999999999996,0.096868,-0.1925,-2.0825,0.665,-0.47003800058462436,0.07950891552177726,-0.2034492838351359
1745336840.8607874,1.000644,0.062098,0.10174799999999999,0.14,0.24500000000000002,-0.08750000000000001,-0.47003800058462436,0.07950891552177726,-0.2034492838351359
1745336840.864294,0.996618,0.063684,0.10345599999999999,0.6475000000000001,-2.0650000000000004,-0.42000000000000004,-0.47296112247880734,0.08097047646886875,-0.19994153756211633
1745336840.8679419,0.999668,0.065758,0.101504,1.3825,-0.665,-0.43750000000000006,-0.47296112247880734,0.08097047646886875,-0.19994153756211633
1745336840.8745165,1.000766,0.060024,0.10577399999999999,-0.43750000000000006,1.2425000000000002,1.33,-0.47500730780473543,0.08535515931014323,-0.19964922537269805
1745336840.8786836,0.998814,0.058926,0.104554,-0.805,-0.6125,-0.9100000000000001,-0.47413037123648055,0.08827828120432622,-0.20286465945629933
1745336840.8838017,0.999668,0.065026,0.110166,-1.0675000000000001,-0.0175,0.5775,-0.4697456883952061,0.08535515931014323,-0.19964922537269805
1745336840.8879864,0.9995459999999999,0.065758,0.103822,-0.49000000000000005,-0.6125,0.385,-0.4697456883952061,0.08535515931014323,-0.19964922537269805
1745336840.8915558,1.002596,0.062586,0.105042,-1.4875,0.5075000000000001,0.47250000000000003,-0.4717918737211342,0.08506284712072494,-0.19847997661502484
1745336840.8952265,0.996374,0.061488,0.104432,-1.8725000000000003,0.6475000000000001,-0.14,-0.47208418591055246,0.08330897398421515,-0.20169541069862612
1745336840.8991206,0.998204,0.063074,0.10553,0.5950000000000001,-0.7175,-0.035,-0.47208418591055246,0.08330897398421515,-0.20169541069862612
1745336840.9027405,1.000766,0.06222,0.101992,0.14,1.2075,-0.035,-0.4744226834258989,0.08447822274188833,-0.19555685472084186
1745336840.9059944,0.998692,0.064538,0.102968,-0.5775,-0.24500000000000002,-0.43750000000000006,-0.4744226834258989,0.08447822274188833,-0.19555685472084186
1745336840.9097862,0.996984,0.065026,0.105408,0.1925,-0.9450000000000001,0.665,-0.47705349313066353,0.08535515931014323,-0.19994153756211633
1745336840.9134872,0.9977159999999999,0.062464,0.10248,-0.56,-2.0650000000000004,0.24500000000000002,-0.47705349313066353,0.08535515931014323,-0.19994153756211633
1745336840.9174452,1.001376,0.063196,0.10284599999999999,3.9550000000000005,-0.9100000000000001,-0.14,-0.47149956153171585,0.08593978368897984,-0.20023384975153463
1745336840.9270022,1.0004,0.060878,0.10174799999999999,-0.3325,1.2950000000000002,-0.29750000000000004,-0.4723764980999708,0.08330897398421515,-0.20140309850920785
1745336840.9305942,0.999912,0.06539199999999999,0.108946,0.31500000000000006,-2.4325,0.7175,-0.47413037123648055,0.08097047646886875,-0.20140309850920785
1745336840.934222,1.001376,0.069906,0.107482,-0.56,1.5750000000000002,0.43750000000000006,-0.47413037123648055,0.08097047646886875,-0.20140309850920785
1745336840.937902,1.001132,0.061854,0.101626,-0.052500000000000005,1.1025,-0.08750000000000001,-0.47149956153171585,0.07863197895352236,-0.20403390821397252
1745336840.9414992,0.998692,0.067344,0.104554,0.21000000000000002,-1.8200000000000003,-0.42000000000000004,-0.4691610640163695,0.08155510084770536,-0.20169541069862612
1745336840.9449906,0.999302,0.068442,0.100162,0.10500000000000001,3.99,-0.3325,-0.4691610640163695,0.08155510084770536,-0.20169541069862612
1745336840.9483237,0.969168,0.061488,0.098454,-0.28,0.6475000000000001,-3.2375000000000003,-0.4697456883952061,0.08155510084770536,-0.19964922537269805
1745336840.9517784,0.9995459999999999,0.063928,0.105896,0.6300000000000001,-0.8225000000000001,-3.3775000000000004,-0.4697456883952061,0.08155510084770536,-0.19964922537269805
1745336840.9552073,0.999058,0.06539199999999999,0.104554,0.31500000000000006,0.17500000000000002,0.7000000000000001,-0.47266881028938906,0.08009353990061385,-0.19672610347851505
1745336840.9602232,1.002352,0.063684,0.1037,-0.43750000000000006,-0.1925,0.28,-0.47266881028938906,0.08009353990061385,-0.19672610347851505
1745336840.9640262,1.001742,0.06405,0.099796,1.3125000000000002,-2.3625000000000003,0.47250000000000003,-0.4691610640163695,0.08155510084770536,-0.19847997661502484
1745336840.9679928,0.99552,0.060024,0.105286,-1.12,-0.9100000000000001,0.22750000000000004,-0.47705349313066353,0.08155510084770536,-0.19818766442560654
1745336840.9715078,1.000644,0.063684,0.106506,-0.9275000000000001,-2.1,0.035,-0.47705349313066353,0.08155510084770536,-0.19818766442560654
1745336840.9751284,0.9995459999999999,0.064904,0.102724,-0.8750000000000001,1.5225000000000002,0.3325,-0.47529961999415377,0.07950891552177726,-0.19935691318327975
1745336840.982025,1.001254,0.063928,0.102114,1.5750000000000002,-2.5900000000000003,0.8225000000000001,-0.47149956153171585,0.08506284712072494,-0.19467991815258695
1745336840.9857423,0.996618,0.060268,0.10614,0.7875000000000001,0.9625000000000001,0.665,-0.47149956153171585,0.08506284712072494,-0.19467991815258695
1745336840.9919205,1.00223,0.062708,0.11041,-0.9275000000000001,-1.8550000000000002,-0.08750000000000001,-0.47149956153171585,0.08067816427945046,-0.20140309850920785
1745336840.9961424,0.9995459999999999,0.058316,0.105164,0.0,-0.10500000000000001,1.2425000000000002,-0.4694533762057878,0.08097047646886875,-0.19847997661502484
1745336840.9997,1.001254,0.065636,0.100772,-0.9275000000000001,1.8200000000000003,-3.3775000000000004,-0.4694533762057878,0.08097047646886875,-0.19847997661502484
1745336841.0031536,0.996008,0.059536,0.105286,0.07,-1.4175000000000002,0.8575,-0.47208418591055246,0.08272434960537854,-0.20111078631978954
1745336841.0066252,0.998692,0.061121999999999996,0.106018,-0.1925,-0.43750000000000006,1.0850000000000002,-0.47208418591055246,0.08272434960537854,-0.20111078631978954
1745336841.0100594,0.992958,0.059414,0.11284999999999999,0.10500000000000001,1.12,0.7175,-0.4738380590470623,0.07980122771119556,-0.20374159602455422
1745336841.0133798,0.996984,0.06039,0.10553,-0.29750000000000004,-0.6825000000000001,0.08750000000000001,-0.4738380590470623,0.07980122771119556,-0.19994153756211633
1745336841.0199192,1.006622,0.066002,0.110776,-0.1925,-0.12250000000000001,0.052500000000000005,-0.4691610640163695,0.08740134463607133,-0.19964922537269805
1745336841.0241039,1.00162,0.063196,0.10065,-0.29750000000000004,-0.14,0.3325,-0.4709149371528793,0.07921660333235896,-0.19964922537269805
1745336841.0276766,0.99674,0.092842,0.107238,-0.6825000000000001,-0.45500000000000007,0.7175,-0.4709149371528793,0.07775504238526747,-0.19380298158433207
1745336841.034494,0.997594,0.059292,0.10052799999999999,-1.0150000000000001,0.9975,-0.17500000000000002,-0.47266881028938906,0.08097047646886875,-0.19526454253142356
1745336841.0379987,1.000644,0.06539199999999999,0.10577399999999999,3.7625,-1.5750000000000002,0.49000000000000005,-0.47266881028938906,0.08097047646886875,-0.19526454253142356
1745336841.041158,0.999668,0.058316,0.100284,-0.43750000000000006,-2.2750000000000004,0.22750000000000004,-0.47500730780473543,0.08447822274188833,-0.19789535223618826
1745336841.0444176,0.996374,0.06539199999999999,0.10052799999999999,-0.28,0.6300000000000001,-0.42000000000000004,-0.47500730780473543,0.08447822274188833,-0.19789535223618826
1745336841.0477345,1.001498,0.060878,0.100406,-0.7175,-0.17500000000000002,0.052500000000000005,-0.47559193218357204,0.08360128617363344,-0.19263373282665888
1745336841.051025,0.99857,0.034648,0.110898,-1.0675000000000001,0.77,0.8575,-0.47559193218357204,0.08360128617363344,-0.19263373282665888
1745336841.0545454,0.998082,0.062586,0.105896,-1.3650000000000002,-3.6750000000000003,0.052500000000000005,-0.467699503069278,0.08418591055247004,-0.20374159602455422
1745336841.0601928,1.000644,0.062098,0.10797,-0.17500000000000002,-0.385,-0.035,-0.47208418591055246,0.08330897398421515,-0.20403390821397252
1745336841.0641267,0.998448,0.057828,0.105164,0.49000000000000005,3.2375000000000003,0.7000000000000001,-0.47208418591055246,0.08330897398421515,-0.20403390821397252
1745336841.067417,0.9928359999999999,0.062464,0.09174399999999999,-0.56,1.435,0.10500000000000001,-0.4697456883952061,0.08535515931014323,-0.2057877813504823
1745336841.070925,0.99857,0.062586,0.102114,-0.9625000000000001,-0.385,0.10500000000000001,-0.4697456883952061,0.08535515931014323,-0.2057877813504823
1745336841.0744743,0.9995459999999999,0.032452,0.10760399999999999,-1.3125000000000002,-0.9975,0.14,-0.4723764980999708,0.08593978368897984,-0.20169541069862612
1745336841.0778697,1.001864,0.061244,0.10675,-1.61,0.4025,-0.052500000000000005,-0.4723764980999708,0.08593978368897984,-0.20169541069862612
1745336841.0812304,0.999058,0.05856,0.10577399999999999,-3.8500000000000005,-0.28,0.47250000000000003,-0.47003800058462436,0.08506284712072494,-0.19789535223618826
1745336841.0843182,1.001498,0.066856,0.104554,-0.49000000000000005,-1.1025,-0.22750000000000004,-0.47003800058462436,0.08506284712072494,-0.19789535223618826
1745336841.090403,0.999668,0.064904,0.110044,0.7000000000000001,-0.7175,0.29750000000000004,-0.47354574685764395,0.08535515931014323,-0.19994153756211633
1745336841.094169,1.0248,0.065148,0.10431,0.9450000000000001,-0.07,0.9625000000000001,-0.4764688687518269,0.08330897398421515,-0.19643379128909674
1745336841.0997639,0.999668,0.061975999999999996,0.093696,-0.77,-0.665,0.9975,-0.4717918737211342,0.08155510084770536,-0.19351066939491376
1745336841.1036057,1.00345,0.034038,0.107116,0.7000000000000001,-2.2575000000000003,0.77,-0.4717918737211342,0.08155510084770536,-0.19351066939491376
1745336841.1069999,0.99857,0.06039,0.108214,3.7100000000000004,0.7875000000000001,0.9625000000000001,-0.4712072493422976,0.08213972522654195,-0.19994153756211633
1745336841.1105661,0.9989359999999999,0.065636,0.10174799999999999,3.9550000000000005,0.7350000000000001,0.28,-0.4712072493422976,0.08213972522654195,-0.19994153756211633
1745336841.1148753,0.997594,0.066612,0.100284,-0.43750000000000006,-0.8575,4.340000000000001,-0.47003800058462436,0.08506284712072494,-0.19614147909967847
1745336841.1184883,0.9964959999999999,0.060756,0.106262,-0.14,-3.5525,-0.035,-0.47003800058462436,0.08506284712072494,-0.19614147909967847
1745336841.1220026,0.997472,0.057218,0.098576,0.24500000000000002,-0.24500000000000002,-0.47250000000000003,-0.4709149371528793,0.08535515931014323,-0.19818766442560654
1745336841.1254687,1.000278,0.060756,0.105408,0.7525000000000001,3.3775000000000004,-0.805,-0.47062262496346097,0.08213972522654195,-0.20374159602455422
1745336841.1288674,0.99857,0.06344,0.10760399999999999,0.8925000000000001,0.14,-2.6775,-0.47062262496346097,0.08213972522654195,-0.20374159602455422
1745336841.1323595,0.9989359999999999,0.031354,0.099064,0.29750000000000004,0.08750000000000001,1.5225000000000002,-0.4697456883952061,0.08710903244665302,-0.19964922537269805
1745336841.1387525,0.9934459999999999,0.06344,0.102114,0.31500000000000006,-0.35000000000000003,-1.33,-0.46857643963753287,0.08506284712072494,-0.19614147909967847
1745336841.145088,1.002718,0.036234,0.10931199999999999,-0.385,-0.3325,0.9100000000000001,-0.46857643963753287,0.08009353990061385,-0.20081847413037124
1745336841.1486468,1.000522,0.059047999999999996,0.107116,-0.6300000000000001,0.14,0.9100000000000001,-0.467699503069278,0.08009353990061385,-0.20081847413037124
1745336841.1521904,0.99979,0.092964,0.10065,-0.7350000000000001,0.08750000000000001,0.77,-0.4650686933645133,0.08067816427945046,-0.19760304004676996
1745336841.1557715,0.998082,0.061732,0.103578,-0.42000000000000004,0.28,0.42000000000000004,-0.4650686933645133,0.08067816427945046,-0.19760304004676996
1745336841.1592147,0.997594,0.059047999999999996,0.099308,0.1925,0.28,0.5775,-0.4691610640163695,0.08272434960537854,-0.19731072785735165
1745336841.1625195,1.001864,0.061488,0.10431,3.7450000000000006,-0.7175,-0.5075000000000001,-0.4691610640163695,0.08272434960537854,-0.19731072785735165
1745336841.1658714,1.002474,0.06039,0.101626,-0.28,-0.5775,-0.9800000000000001,-0.4709149371528793,0.08389359836305174,-0.20140309850920785
1745336841.169199,1.0304119999999999,0.067222,0.10065,0.10500000000000001,-0.805,-0.7525000000000001,-0.4709149371528793,0.08389359836305174,-0.20140309850920785
1745336841.1725047,0.99979,0.062952,0.10174799999999999,0.6475000000000001,0.35000000000000003,0.8925000000000001,-0.4691610640163695,0.07950891552177726,-0.205495469161064
1745336841.1780198,0.999302,0.061366,0.106506,-4.235,-0.29750000000000004,-0.665,-0.4691610640163695,0.08213972522654195,-0.19789535223618826
1745336841.1819856,0.997472,0.06478199999999999,0.10638399999999999,0.052500000000000005,0.5075000000000001,-3.4650000000000003,-0.47266881028938906,0.08213972522654195,-0.19789535223618826
1745336841.1858249,0.997838,0.06222,0.10577399999999999,4.2525,-1.7500000000000002,-0.0175,-0.4644840689856767,0.08272434960537854,-0.19789535223618826
1745336841.1895926,0.996618,0.088572,0.110166,-0.08750000000000001,0.5075000000000001,0.052500000000000005,-0.4644840689856767,0.08272434960537854,-0.19789535223618826
1745336841.1931694,1.000156,0.06831999999999999,0.102236,-0.77,1.2425000000000002,0.36750000000000005,-0.4668225665010231,0.08447822274188833,-0.19935691318327975
1745336841.1993296,0.999912,0.05978,0.100162,-4.0425,-1.2075,-0.43750000000000006,-0.4694533762057878,0.08652440806781643,-0.20432622040339082
1745336841.2030406,0.969656,0.056119999999999996,0.103944,-0.7350000000000001,-1.435,0.24500000000000002,-0.4694533762057878,0.08652440806781643,-0.20432622040339082
1745336841.2064066,1.000766,0.034038,0.105042,-1.2075,1.715,-0.035,-0.47003800058462436,0.08535515931014323,-0.2034492838351359
1745336841.209694,0.996618,0.059657999999999996,0.10284599999999999,-0.525,-0.8400000000000001,-0.6475000000000001,-0.47003800058462436,0.08535515931014323,-0.2034492838351359
1745336841.2131467,0.99796,0.060146,0.10467599999999999,-0.08750000000000001,-0.15750000000000003,-2.87,-0.47062262496346097,0.08535515931014323,-0.20052616194095294
1745336841.22004,0.994788,0.090036,0.09820999999999999,-0.29750000000000004,-0.21000000000000002,1.155,-0.4674071908798597,0.08330897398421515,-0.20052616194095294
1745336841.2243474,0.995398,0.066002,0.102236,0.10500000000000001,0.22750000000000004,0.7175,-0.4682841274481146,0.08535515931014323,-0.19760304004676996
1745336841.2278228,0.99918,0.068198,0.099552,-0.052500000000000005,0.12250000000000001,0.3325,-0.4682841274481146,0.08535515931014323,-0.19760304004676996
1745336841.2314126,0.99857,0.060634,0.105408,0.8750000000000001,-0.805,0.43750000000000006,-0.4668225665010231,0.08564747149956153,-0.20081847413037124
1745336841.2349894,0.998448,0.062464,0.103578,-3.6575,0.0175,0.1925,-0.4668225665010231,0.08564747149956153,-0.20081847413037124
1745336841.238503,1.002962,0.06478199999999999,0.108336,-1.2600000000000002,0.07,0.24500000000000002,-0.46857643963753287,0.08769365682548963,-0.19643379128909674
1745336841.2418637,0.996984,0.06039,0.10614,-0.47250000000000003,-0.385,-0.22750000000000004,-0.46857643963753287,0.08769365682548963,-0.19643379128909674
1745336841.245187,0.995642,0.066246,0.10736,-0.28,-0.525,-0.14,-0.4650686933645133,0.08827828120432622,-0.19526454253142356
1745336841.2514787,0.9989359999999999,0.06161,0.105286,-0.385,-0.21000000000000002,0.47250000000000003,-0.467699503069278,0.08418591055247004,-0.19877228880444314
1745336841.2554784,1.001742,0.060268,0.103334,-0.385,-0.5950000000000001,0.47250000000000003,-0.467699503069278,0.08418591055247004,-0.19877228880444314
1745336841.2603924,0.998204,0.061121999999999996,0.105286,-0.052500000000000005,-0.9450000000000001,0.7875000000000001,-0.4691610640163695,0.08272434960537854,-0.20169541069862612
1745336841.2641253,0.999302,0.06405,0.10187,3.6575,-1.155,0.035,-0.4694533762057878,0.08389359836305174,-0.20140309850920785
1745336841.2672658,1.003572,0.062464,0.10345599999999999,0.1925,-1.3825,0.0,-0.4694533762057878,0.08389359836305174,-0.20140309850920785
1745336841.2706325,1.002108,0.057462,0.101382,4.2875000000000005,0.31500000000000006,-0.42000000000000004,-0.4688687518269512,0.08184741303712365,-0.19847997661502484
1745336841.274225,0.995154,0.063318,0.106872,0.07,0.07,-0.36750000000000005,-0.4688687518269512,0.08184741303712365,-0.19847997661502484
1745336841.277701,0.998814,0.059292,0.10699399999999999,-0.36750000000000005,-0.052500000000000005,-0.1925,-0.4641917567962584,0.08506284712072494,-0.19964922537269805
1745336841.281079,0.999668,0.063074,0.108458,4.1475,-0.15750000000000003,-0.42000000000000004,-0.4641917567962584,0.08506284712072494,-0.19964922537269805
1745336841.2843874,1.005402,0.065758,0.104188,-0.665,-0.35000000000000003,-0.24500000000000002,-0.46389944460684013,0.08506284712072494,-0.20315697164571764
1745336841.2877085,0.99979,0.059657999999999996,0.105164,0.1925,-0.35000000000000003,0.8225000000000001,-0.46389944460684013,0.08506284712072494,-0.20315697164571764
1745336841.290947,0.997594,0.065026,0.101382,-0.9100000000000001,-0.385,0.385,-0.46389944460684013,0.08243203741596025,-0.20111078631978954
1745336841.2946024,0.999424,0.06405,0.106018,-0.525,-0.77,-0.052500000000000005,-0.46389944460684013,0.08243203741596025,-0.20111078631978954
1745336841.299933,1.005036,0.061732,0.101626,3.9200000000000004,-1.2425000000000002,0.3325,-0.4709149371528793,0.08360128617363344,-0.19701841566793335
1745336841.3066077,0.999424,0.06222,0.101504,-0.12250000000000001,0.0175,0.22750000000000004,-0.4688687518269512,0.08506284712072494,-0.20140309850920785
1745336841.3101957,0.998692,0.061488,0.100162,0.14,-3.08,0.5075000000000001,-0.4694533762057878,0.08681672025723473,-0.19994153756211633
1745336841.31369,0.9946659999999999,0.062464,0.103334,0.24500000000000002,-1.8900000000000001,0.36750000000000005,-0.4694533762057878,0.08681672025723473,-0.19994153756211633
1745336841.3172758,0.9983259999999999,0.066246,0.104432,-0.08750000000000001,0.5425000000000001,0.21000000000000002,-0.4691610640163695,0.08681672025723473,-0.19643379128909674
1745336841.3206646,1.002596,0.063562,0.09759999999999999,-0.525,-4.340000000000001,-0.14,-0.4691610640163695,0.08681672025723473,-0.19643379128909674
1745336841.3239756,1.000522,0.065636,0.1037,0.35000000000000003,-0.665,0.6475000000000001,-0.4697456883952061,0.08418591055247004,-0.19847997661502484
1745336841.32732,1.003694,0.062098,0.106872,0.2625,-0.052500000000000005,0.49000000000000005,-0.4697456883952061,0.08418591055247004,-0.19847997661502484
1745336841.3306196,0.999058,0.065636,0.107238,-0.12250000000000001,3.535,0.3325,-0.467699503069278,0.08506284712072494,-0.20432622040339082
1745336841.3342803,1.001132,0.063318,0.101016,-0.24500000000000002,0.35000000000000003,0.052500000000000005,-0.467699503069278,0.08506284712072494,-0.20432622040339082
1745336841.339782,1.002352,0.063928,0.107726,-0.47250000000000003,-0.1925,0.035,-0.4682841274481146,0.08097047646886875,-0.20198772288804442
1745336841.343767,0.996374,0.091256,0.103212,0.6300000000000001,-1.715,0.5775,-0.47062262496346097,0.08535515931014323,-0.2078339666764104
1745336841.347429,1.02968,0.062708,0.09991799999999999,0.31500000000000006,0.7000000000000001,0.14,-0.47062262496346097,0.08535515931014323,-0.2078339666764104
1745336841.350968,1.003206,0.064416,0.108092,0.15750000000000003,1.435,0.29750000000000004,-0.46857643963753287,0.08418591055247004,-0.2034492838351359
1745336841.354549,0.999302,0.061732,0.10553,0.8750000000000001,-2.1175,-0.08750000000000001,-0.46857643963753287,0.08418591055247004,-0.2034492838351359
1745336841.360975,1.003206,0.063928,0.107238,0.7000000000000001,0.07,0.35000000000000003,-0.464776381175095,0.08038585209003216,-0.19321835720549546
1745336841.3645911,1.001742,0.061488,0.098454,0.49000000000000005,0.9275000000000001,0.665,-0.4682841274481146,0.08360128617363344,-0.20023384975153463
1745336841.3679738,0.9989359999999999,0.060511999999999996,0.102114,0.7000000000000001,-0.9625000000000001,0.3325,-0.4682841274481146,0.08360128617363344,-0.20023384975153463
1745336841.371299,1.027728,0.059536,0.102114,0.21000000000000002,-1.5750000000000002,0.0,-0.4712072493422976,0.08243203741596025,-0.19994153756211633
1745336841.3751965,1.001864,0.064538,0.104554,-0.9625000000000001,0.5425000000000001,0.08750000000000001,-0.4712072493422976,0.08243203741596025,-0.19994153756211633
1745336841.380218,0.996984,0.061975999999999996,0.10406599999999999,-0.17500000000000002,-1.3125000000000002,0.385,-0.46857643963753287,0.08243203741596025,-0.20286465945629933
1745336841.3843527,0.996252,0.056119999999999996,0.10065,-0.28,-0.052500000000000005,-0.42000000000000004,-0.46389944460684013,0.08038585209003216,-0.19731072785735165
1745336841.3878238,0.997472,0.061121999999999996,0.099796,0.1925,-0.47250000000000003,-0.47250000000000003,-0.46389944460684013,0.08038585209003216,-0.19731072785735165
1745336841.391427,0.997472,0.061366,0.104188,1.1375000000000002,-0.4025,-0.665,-0.47062262496346097,0.08126278865828705,-0.19994153756211633
1745336841.395307,1.001132,0.09113399999999999,0.10492,-1.2425000000000002,-0.5775,4.3925,-0.47062262496346097,0.08389359836305174,-0.2034492838351359
1745336841.3988059,1.002108,0.064416,0.106628,-1.5575,0.22750000000000004,4.112500000000001,-0.4682841274481146,0.08389359836305174,-0.2034492838351359
1745336841.40215,1.001254,0.092598,0.10553,-1.12,-0.665,-0.36750000000000005,-0.4662379421221865,0.08389359836305174,-0.19994153756211633
1745336841.4055362,0.999424,0.065514,0.104432,-0.665,-0.5775,-0.6300000000000001,-0.4662379421221865,0.08389359836305174,-0.19994153756211633
1745336841.409066,0.999302,0.06344,0.106262,-0.385,0.7350000000000001,-0.35000000000000003,-0.4668225665010231,0.08389359836305174,-0.20491084478222743
1745336841.4219458,1.001254,0.060024,0.102602,-1.1025,-0.7525000000000001,-0.8575,-0.46857643963753287,0.08097047646886875,-0.19614147909967847
1745336841.4253619,1.000888,0.059536,0.109068,0.0175,-1.1025,0.8575,-0.46857643963753287,0.08097047646886875,-0.19614147909967847
1745336841.428607,1.0004,0.062586,0.098454,-0.29750000000000004,-1.4700000000000002,4.112500000000001,-0.4665302543116048,0.07804735457468577,-0.19438760596316867
1745336841.4318883,0.9977159999999999,0.065026,0.107482,-3.7800000000000002,0.4025,-0.7525000000000001,-0.4665302543116048,0.07804735457468577,-0.19438760596316867
1745336841.4351878,0.993812,0.06466,0.099308,0.8400000000000001,0.2625,-0.77,-0.4627301958491669,0.08213972522654195,-0.18941829874305757
1745336841.438336,0.998204,0.061121999999999996,0.107116,-0.22750000000000004,0.7875000000000001,0.77,-0.4627301958491669,0.08213972522654195,-0.18941829874305757
1745336841.4413726,0.995642,0.065758,0.101626,1.0325000000000002,0.6825000000000001,-0.15750000000000003,-0.4674071908798597,0.08097047646886875,-0.19731072785735165
1745336841.4444032,0.970266,0.06344,0.10675,-0.8225000000000001,0.035,-0.5775,-0.4674071908798597,0.08097047646886875,-0.19731072785735165
1745336841.447402,0.999424,0.062586,0.1037,-0.49000000000000005,3.8150000000000004,0.3325,-0.4674071908798597,0.08097047646886875,-0.19731072785735165
1745336841.4503546,1.000278,0.062586,0.10431,-0.28,4.235,-0.31500000000000006,-0.4641917567962584,0.08418591055247004,-0.19146448406898567
1745336841.4546084,0.999912,0.068442,0.10248,0.385,0.45500000000000007,0.28,-0.4641917567962584,0.08418591055247004,-0.19146448406898567
1745336841.4596262,0.999668,0.06478199999999999,0.102114,0.43750000000000006,0.9450000000000001,0.43750000000000006,-0.4694533762057878,0.08184741303712365,-0.19351066939491376
1745336841.4634433,0.9995459999999999,0.06405,0.106872,0.10500000000000001,-1.6450000000000002,0.5075000000000001,-0.4630225080385852,0.08564747149956153,-0.19701841566793335
1745336841.4667222,0.996008,0.058926,0.103578,0.24500000000000002,2.2750000000000004,0.10500000000000001,-0.4630225080385852,0.08564747149956153,-0.19701841566793335
1745336841.4701474,0.9928359999999999,0.061366,0.106018,-0.42000000000000004,0.28,0.6300000000000001,-0.46857643963753287,0.08155510084770536,-0.19906460099386145
1745336841.4766903,0.9989359999999999,0.09174399999999999,0.109556,-0.7350000000000001,-3.6925000000000003,-0.24500000000000002,-0.4712072493422976,0.07892429114294067,-0.19204910844782228
1745336841.4799614,1.002474,0.06283,0.105164,-0.8225000000000001,-0.665,0.36750000000000005,-0.4712072493422976,0.07892429114294067,-0.19204910844782228
1745336841.483126,1.002352,0.066002,0.099308,0.0175,3.8675,-0.385,-0.4688687518269512,0.07892429114294067,-0.19117217187956737
1745336841.4863322,0.997838,0.06344,0.102724,-0.36750000000000005,-0.1925,0.6125,-0.4688687518269512,0.07892429114294067,-0.19117217187956737
1745336841.4896524,0.997594,0.06222,0.10406599999999999,-4.4625,-0.29750000000000004,0.31500000000000006,-0.47208418591055246,0.07950891552177726,-0.19467991815258695
1745336841.4936304,1.004548,0.06466,0.10431,-3.9375000000000004,-0.525,0.22750000000000004,-0.47208418591055246,0.07950891552177726,-0.19467991815258695
1745336841.4988627,1.001864,0.059657999999999996,0.102968,-0.12250000000000001,0.0,0.7175,-0.47471499561531716,0.07863197895352236,-0.19467991815258695
1745336841.5031686,0.995154,0.065148,0.104798,-4.2875000000000005,0.31500000000000006,0.035,-0.4709149371528793,0.08009353990061385,-0.20023384975153463
1745336841.5063877,0.9971059999999999,0.060268,0.103334,0.29750000000000004,0.12250000000000001,-0.36750000000000005,-0.4709149371528793,0.08009353990061385,-0.20023384975153463
1745336841.5099642,0.999912,0.062464,0.103334,0.0175,-0.12250000000000001,-0.29750000000000004,-0.4712072493422976,0.08155510084770536,-0.19701841566793335
1745336841.5135584,1.004914,0.066002,0.105408,-0.29750000000000004,-0.2625,-0.56,-0.4712072493422976,0.08155510084770536,-0.19847997661502484
1745336841.516865,1.000888,0.057583999999999996,0.102602,0.31500000000000006,-1.1375000000000002,-0.28,-0.4688687518269512,0.08126278865828705,-0.19847997661502484
1745336841.5202425,0.99857,0.062098,0.10467599999999999,-0.22750000000000004,0.4025,1.1725,-0.4688687518269512,0.08243203741596025,-0.19555685472084186
1745336841.5235908,1.000888,0.06283,0.099552,-3.8500000000000005,0.12250000000000001,0.525,-0.4697456883952061,0.08243203741596025,-0.19555685472084186
1745336841.5299673,1.000888,0.06405,0.102236,0.2625,-1.1900000000000002,0.42000000000000004,-0.4723764980999708,0.08272434960537854,-0.19818766442560654
1745336841.5339127,0.998448,0.06417199999999999,0.103334,-0.1925,-0.35000000000000003,-0.08750000000000001,-0.467699503069278,0.08564747149956153,-0.19672610347851505
1745336841.538701,0.998204,0.062464,0.102968,0.21000000000000002,0.7000000000000001,0.052500000000000005,-0.467699503069278,0.08564747149956153,-0.19672610347851505
1745336841.5425718,1.00101,0.06222,0.111264,-0.7175,-1.8900000000000001,0.56,-0.4691610640163695,0.08740134463607133,-0.19614147909967847
1745336841.5458732,1.002962,0.062342,0.105408,-0.9625000000000001,1.1725,-0.22750000000000004,-0.4691610640163695,0.08740134463607133,-0.19614147909967847
1745336841.5491805,1.005036,0.063684,0.10467599999999999,-0.8575,-4.2175,-0.08750000000000001,-0.4691610640163695,0.08155510084770536,-0.19760304004676996
1745336841.5526626,1.005646,0.063562,0.102358,-0.7350000000000001,0.77,-0.385,-0.4691610640163695,0.08155510084770536,-0.19760304004676996
1745336841.5562267,0.99735,0.060756,0.10052799999999999,0.45500000000000007,0.035,-0.28,-0.4674071908798597,0.08593978368897984,-0.19351066939491376
1745336841.559581,0.998692,0.065636,0.10919,0.29750000000000004,-0.7175,-0.1925,-0.4674071908798597,0.08593978368897984,-0.19935691318327975
1745336841.5628698,0.9989359999999999,0.09089,0.10760399999999999,-0.1925,-0.0175,0.7175,-0.4688687518269512,0.08067816427945046,-0.19935691318327975
1745336841.5662158,1.002108,0.062464,0.10492,4.305000000000001,-0.665,0.1925,-0.4688687518269512,0.08447822274188833,-0.20052616194095294
1745336841.5694144,1.026264,0.064904,0.104188,0.21000000000000002,-0.49000000000000005,0.47250000000000003,-0.4691610640163695,0.08447822274188833,-0.20052616194095294
1745336841.5732882,0.998204,0.062098,0.102358,0.052500000000000005,0.22750000000000004,0.42000000000000004,-0.47062262496346097,0.08477053493130664,-0.2034492838351359
1745336841.5786836,0.997228,0.05917,0.10467599999999999,-0.035,-0.9275000000000001,0.035,-0.47062262496346097,0.08477053493130664,-0.2034492838351359
1745336841.5851076,0.9983259999999999,0.062342,0.10248,-0.5775,0.525,-0.36750000000000005,-0.4671148786904414,0.07921660333235896,-0.2107570885705934
1745336841.5886745,0.996008,0.062952,0.10992199999999999,-0.8225000000000001,-0.12250000000000001,0.08750000000000001,-0.4668225665010231,0.08301666179479684,-0.2072493422975738
1745336841.5922766,1.026996,0.064904,0.098576,-0.5775,-0.9100000000000001,0.0,-0.4668225665010231,0.08301666179479684,-0.2072493422975738
1745336841.5958984,0.994788,0.062952,0.101626,-0.43750000000000006,-4.2175,0.36750000000000005,-0.47062262496346097,0.08126278865828705,-0.19935691318327975
1745336841.599726,0.998814,0.06222,0.10736,-0.12250000000000001,-0.5775,-3.2550000000000003,-0.4703303127740427,0.08272434960537854,-0.20286465945629933
1745336841.6030684,0.999302,0.06161,0.108458,-3.535,0.8400000000000001,0.8400000000000001,-0.4703303127740427,0.08272434960537854,-0.20286465945629933
1745336841.6063886,1.00223,0.065514,0.109434,0.4025,-3.8675,0.14,-0.4668225665010231,0.08535515931014323,-0.2072493422975738
1745336841.6096616,1.000034,0.065026,0.105286,0.4025,-0.29750000000000004,0.10500000000000001,-0.4668225665010231,0.08535515931014323,-0.2072493422975738
1745336841.6132267,0.999668,0.063318,0.10577399999999999,0.7350000000000001,-0.77,-0.24500000000000002,-0.467699503069278,0.08477053493130664,-0.20315697164571764
1745336841.6184855,0.999668,0.063928,0.10406599999999999,-0.77,-0.15750000000000003,0.56,-0.467699503069278,0.08477053493130664,-0.20315697164571764
1745336841.6222992,1.000766,0.06466,0.10345599999999999,3.2375000000000003,-1.9775000000000003,0.1925,-0.4688687518269512,0.08681672025723473,-0.20257234726688103
1745336841.6256227,0.99979,0.062708,0.100894,0.4025,2.765,0.052500000000000005,-0.4697456883952061,0.08740134463607133,-0.2078339666764104
1745336841.6289678,0.998692,0.093208,0.09943,0.9450000000000001,-0.14,0.1925,-0.4697456883952061,0.08740134463607133,-0.2078339666764104
1745336841.6323855,1.0004,0.064294,0.10492,0.2625,0.8400000000000001,-0.10500000000000001,-0.46857643963753287,0.08477053493130664,-0.20169541069862612
1745336841.6387382,0.994422,0.066856,0.102114,1.5050000000000001,-0.15750000000000003,0.052500000000000005,-0.46857643963753287,0.08447822274188833,-0.19321835720549546
1745336841.642148,0.9971059999999999,0.062952,0.102358,0.5425000000000001,-0.21000000000000002,0.525,-0.4682841274481146,0.08447822274188833,-0.19321835720549546
1745336841.6455112,0.99857,0.06417199999999999,0.105286,1.3125000000000002,-0.1925,0.14,-0.4717918737211342,0.08740134463607133,-0.19672610347851505
1745336841.6487913,1.005158,0.062098,0.10797,0.8400000000000001,-0.10500000000000001,0.5775,-0.4717918737211342,0.08740134463607133,-0.19672610347851505
1745336841.6524224,1.000278,0.063318,0.106628,4.0425,-0.47250000000000003,0.29750000000000004,-0.4671148786904414,0.08798596901490792,-0.19643379128909674
1745336841.6573832,0.999424,0.063074,0.099064,-0.3325,0.6475000000000001,-0.22750000000000004,-0.4671148786904414,0.08798596901490792,-0.19643379128909674
1745336841.6608477,0.999302,0.062952,0.101504,0.052500000000000005,-0.6300000000000001,-0.665,-0.47003800058462436,0.08301666179479684,-0.19877228880444314
1745336841.664251,1.000888,0.062952,0.107116,0.49000000000000005,-1.1900000000000002,-0.5775,-0.47003800058462436,0.08301666179479684,-0.19877228880444314
1745336841.6675906,0.99918,0.061244,0.106262,0.385,-0.49000000000000005,-3.43,-0.4717918737211342,0.08272434960537854,-0.19175679625840397
1745336841.6710296,0.994788,0.063196,0.09516,0.4025,0.4025,0.5775,-0.4717918737211342,0.08272434960537854,-0.19175679625840397
1745336841.67451,1.000278,0.06283,0.106018,0.4025,0.4025,0.1925,-0.47003800058462436,0.08506284712072494,-0.20228003507746273
1745336841.6778734,1.001864,0.065148,0.101016,0.10500000000000001,-0.47250000000000003,0.24500000000000002,-0.47003800058462436,0.08506284712072494,-0.20228003507746273
1745336841.6811714,0.997594,0.05917,0.109434,0.5075000000000001,3.6750000000000003,-0.22750000000000004,-0.47003800058462436,0.08477053493130664,-0.19877228880444314
1745336841.6845257,0.9681919999999999,0.06539199999999999,0.10052799999999999,0.5775,-0.1925,-3.7100000000000004,-0.47003800058462436,0.08477053493130664,-0.19847997661502484
1745336841.6910222,1.000766,0.059047999999999996,0.10675,0.052500000000000005,-0.17500000000000002,0.24500000000000002,-0.47208418591055246,0.07892429114294067,-0.19847997661502484
1745336841.6962967,0.999302,0.064416,0.106872,0.10500000000000001,-0.805,-0.07,-0.47354574685764395,0.08301666179479684,-0.19438760596316867
1745336841.6998994,1.02907,0.059536,0.103822,0.0,-3.5000000000000004,0.21000000000000002,-0.4744226834258989,0.08564747149956153,-0.19789535223618826
1745336841.7035978,0.999058,0.06161,0.10174799999999999,0.2625,-1.9600000000000002,0.08750000000000001,-0.4744226834258989,0.08564747149956153,-0.19789535223618826
1745336841.7069263,1.002474,0.06161,0.102358,0.7000000000000001,2.0825,-0.17500000000000002,-0.47208418591055246,0.08389359836305174,-0.19964922537269805
1745336841.7103364,1.00101,0.063074,0.104432,0.4025,1.4000000000000001,-0.36750000000000005,-0.47208418591055246,0.08389359836305174,-0.19964922537269805
1745336841.7137647,0.993202,0.06161,0.099552,0.1925,0.31500000000000006,0.9450000000000001,-0.4703303127740427,0.08564747149956153,-0.20169541069862612
1745336841.7170892,1.000522,0.055632,0.10577399999999999,1.12,-2.0650000000000004,0.525,-0.4703303127740427,0.08564747149956153,-0.20169541069862612
1745336841.7202523,1.002474,0.066368,0.102114,-0.052500000000000005,-2.6950000000000003,0.42000000000000004,-0.47529961999415377,0.08740134463607133,-0.19877228880444314
1745336841.7234704,1.001254,0.061,0.107482,-0.525,0.6125,-0.385,-0.47529961999415377,0.08740134463607133,-0.19877228880444314
1745336841.72658,1.02846,0.061975999999999996,0.103334,-0.12250000000000001,-0.665,-3.6750000000000003,-0.4694533762057878,0.08506284712072494,-0.20228003507746273
1745336841.7296834,0.9995459999999999,0.057828,0.102114,0.5425000000000001,3.5175000000000005,0.28,-0.4694533762057878,0.08506284712072494,-0.20228003507746273
1745336841.7346358,0.995398,0.09272,0.10675,-0.6825000000000001,1.4000000000000001,0.5075000000000001,-0.4691610640163695,0.08798596901490792,-0.20111078631978954
1745336841.7380943,0.993812,0.063562,0.106262,-4.0425,-3.0975,0.24500000000000002,-0.4709149371528793,0.08330897398421515,-0.1908798596901491
1745336841.7450187,1.0004,0.067588,0.10638399999999999,-4.4275,0.7525000000000001,0.29750000000000004,-0.4671148786904414,0.08389359836305174,-0.19380298158433207
1745336841.7482908,0.993324,0.05856,0.09991799999999999,-0.9975,1.3650000000000002,-0.12250000000000001,-0.4671148786904414,0.08389359836305174,-0.19380298158433207
1745336841.7515457,1.003084,0.063074,0.106506,0.0175,-2.4325,0.49000000000000005,-0.46857643963753287,0.08184741303712365,-0.19467991815258695
1745336841.7547843,1.000522,0.067466,0.103334,-0.08750000000000001,-1.8725000000000003,0.24500000000000002,-0.46857643963753287,0.08184741303712365,-0.19467991815258695
1745336841.7579954,1.001498,0.035136,0.103334,0.385,-1.5925000000000002,0.0175,-0.4656533177433499,0.08067816427945046,-0.19847997661502484
1745336841.7619395,1.0004,0.062586,0.105896,-0.77,1.5925000000000002,-0.6125,-0.4656533177433499,0.08067816427945046,-0.19847997661502484
1745336841.766687,0.99857,0.061732,0.103578,-0.49000000000000005,-2.7125000000000004,0.7525000000000001,-0.4688687518269512,0.08418591055247004,-0.19204910844782228
1745336841.7704797,1.0304119999999999,0.064904,0.10736,-0.9975,0.49000000000000005,-0.385,-0.47003800058462436,0.08593978368897984,-0.19584916691026016
1745336841.7737656,1.000888,0.034159999999999996,0.096624,-0.052500000000000005,1.4000000000000001,0.49000000000000005,-0.47003800058462436,0.08593978368897984,-0.19584916691026016
1745336841.7772055,0.99979,0.061854,0.105652,3.9025000000000003,-1.7500000000000002,-0.08750000000000001,-0.4656533177433499,0.08710903244665302,-0.19818766442560654
1745336841.7808409,1.00284,0.061,0.10699399999999999,0.7000000000000001,-0.43750000000000006,0.14,-0.4656533177433499,0.08710903244665302,-0.19818766442560654
1745336841.7843776,1.001132,0.032574,0.104188,-0.42000000000000004,1.8550000000000002,0.28,-0.4694533762057878,0.08272434960537854,-0.20140309850920785
1745336841.7876575,0.993568,0.066002,0.102724,4.095000000000001,-1.1900000000000002,-0.43750000000000006,-0.4694533762057878,0.08272434960537854,-0.20140309850920785
1745336841.7908158,0.994422,0.062586,0.104432,0.6825000000000001,-0.47250000000000003,-3.3075,-0.47325343466822567,0.08740134463607133,-0.20228003507746273
1745336841.794017,1.002718,0.063074,0.10187,0.7000000000000001,-1.7500000000000002,0.385,-0.47325343466822567,0.08740134463607133,-0.20228003507746273
1745336841.8001766,1.00101,0.06039,0.113704,0.15750000000000003,-1.5750000000000002,-0.36750000000000005,-0.4709149371528793,0.08301666179479684,-0.20111078631978954
1745336841.8056502,1.000888,0.09333,0.108458,-0.6300000000000001,0.9800000000000001,0.385,-0.4694533762057878,0.08769365682548963,-0.19584916691026016
1745336841.8094246,0.999058,0.066368,0.095404,0.5075000000000001,-2.6425,-0.0175,-0.4694533762057878,0.08769365682548963,-0.19584916691026016
1745336841.8127367,0.995764,0.062952,0.10467599999999999,0.07,1.6800000000000002,-0.5775,-0.47149956153171585,0.08506284712072494,-0.19409529377375037
1745336841.8160727,1.001132,0.062952,0.106506,-0.22750000000000004,1.155,-0.665,-0.47149956153171585,0.08506284712072494,-0.19409529377375037
1745336841.8194818,0.99735,0.032574,0.09881999999999999,-0.56,1.0325000000000002,-2.9225000000000003,-0.4717918737211342,0.08593978368897984,-0.19204910844782228
1745336841.822906,1.001986,0.058438,0.09820999999999999,-0.14,-1.6975000000000002,1.3650000000000002,-0.4717918737211342,0.08126278865828705,-0.19847997661502484
1745336841.826196,0.997594,0.061121999999999996,0.10065,-3.5525,0.22750000000000004,1.1725,-0.4691610640163695,0.08126278865828705,-0.19847997661502484
1745336841.829352,1.000278,0.066734,0.111874,0.1925,-0.8750000000000001,-0.3325,-0.4691610640163695,0.08126278865828705,-0.19292604501607716
1745336841.832558,1.00406,0.06954,0.093452,0.6475000000000001,0.8925000000000001,-0.45500000000000007,-0.4682841274481146,0.08506284712072494,-0.19292604501607716
1745336841.835715,0.998448,0.065026,0.119072,0.7350000000000001,-0.15750000000000003,0.8925000000000001,-0.4682841274481146,0.08506284712072494,-0.19292604501607716
1745336841.8390083,0.99003,0.061488,0.09394,0.21000000000000002,-3.9200000000000004,0.10500000000000001,-0.4691610640163695,0.08330897398421515,-0.19438760596316867
1745336841.8444047,1.001254,0.060268,0.112972,-0.22750000000000004,-0.1925,-0.052500000000000005,-0.4674071908798597,0.08857059339374451,-0.19818766442560654
1745336841.8481967,1.001498,0.056242,0.10113799999999999,-0.1925,0.08750000000000001,0.35000000000000003,-0.4674071908798597,0.08857059339374451,-0.19818766442560654
1745336841.8545907,0.998448,0.060511999999999996,0.10248,-0.6125,0.5075000000000001,4.0600000000000005,-0.46799181525869626,0.08798596901490792,-0.19555685472084186
1745336841.8581426,1.02785,0.062464,0.109068,-0.035,-0.385,0.8575,-0.4691610640163695,0.08740134463607133,-0.19292604501607716
1745336841.8617432,0.972096,0.062586,0.1098,-0.56,-0.15750000000000003,0.47250000000000003,-0.4691610640163695,0.08740134463607133,-0.19292604501607716
1745336841.8651507,1.000278,0.06770999999999999,0.09577,-0.28,-0.3325,0.47250000000000003,-0.4738380590470623,0.08564747149956153,-0.19847997661502484
1745336841.8684103,1.001254,0.09272,0.106506,-0.49000000000000005,-0.7525000000000001,-0.31500000000000006,-0.4738380590470623,0.08564747149956153,-0.19847997661502484
1745336841.871855,1.00101,0.059292,0.102602,0.07,0.31500000000000006,-0.31500000000000006,-0.4709149371528793,0.08915521777258112,-0.19117217187956737
1745336841.8753884,0.99979,0.061121999999999996,0.10126,-0.6825000000000001,-0.10500000000000001,0.43750000000000006,-0.4709149371528793,0.08915521777258112,-0.19584916691026016
1745336841.8786347,1.030534,0.06161,0.098454,0.24500000000000002,-0.47250000000000003,0.24500000000000002,-0.46857643963753287,0.08740134463607133,-0.19584916691026016
1745336841.8852022,1.01016,0.050873999999999996,0.101016,0.21000000000000002,-2.9050000000000002,-0.14,-0.4697456883952061,0.08827828120432622,-0.19672610347851505
1745336841.888778,1.016504,0.065148,0.095038,-0.1925,-0.6300000000000001,-0.9625000000000001,-0.4697456883952061,0.08213972522654195,-0.19818766442560654
1745336841.892186,1.0248,0.054534,0.106506,-0.22750000000000004,2.4850000000000003,-1.5050000000000001,-0.47529961999415377,0.08213972522654195,-0.19818766442560654
1745336841.8956547,1.03761,0.04819,0.085522,-0.6300000000000001,2.6250000000000004,-2.45,-0.4653610055539316,0.08447822274188833,-0.19994153756211633
1745336841.8992717,1.037244,0.048922,0.044774,-0.36750000000000005,-0.0175,-2.415,-0.4653610055539316,0.08447822274188833,-0.19994153756211633
1745336841.9026837,1.0359019999999999,-0.000732,0.11712,-0.052500000000000005,0.35000000000000003,-2.6250000000000004,-0.4688687518269512,0.08389359836305174,-0.19467991815258695
1745336841.9087906,1.079212,0.06417199999999999,0.011712,0.14,2.4675000000000002,-2.3275,-0.4712072493422976,0.08623209587839813,-0.19643379128909674
1745336841.912062,0.9365939999999999,0.013297999999999999,0.108214,0.6300000000000001,5.0925,-0.7000000000000001,-0.4712072493422976,0.08623209587839813,-0.19643379128909674
1745336841.9154727,0.794342,-0.025376,0.120292,1.4175000000000002,3.6575,0.805,-0.4744226834258989,0.08944752996199941,-0.20111078631978954
1745336841.9190352,0.93208,-0.111874,0.187148,2.765,-5.897500000000001,-4.48,-0.4744226834258989,0.08944752996199941,-0.20111078631978954
1745336841.9247088,1.123132,-0.108092,-0.024156,0.7000000000000001,-0.42000000000000004,0.9625000000000001,-0.467699503069278,0.08535515931014323,-0.20140309850920785
1745336841.928513,1.080432,-0.17934,0.190808,1.9600000000000002,1.225,-0.43750000000000006,-0.4709149371528793,0.08418591055247004,-0.20140309850920785
1745336841.9317968,1.035658,-0.092598,0.109068,4.585000000000001,-2.1350000000000002,-0.9450000000000001,-0.4709149371528793,0.08418591055247004,-0.20140309850920785
1745336841.9352243,1.183034,0.020374,0.201178,5.6000000000000005,-3.8150000000000004,-1.6450000000000002,-0.4653610055539316,0.08389359836305174,-0.19847997661502484
1745336841.9388945,1.110322,-0.23363,-0.097112,4.952500000000001,7.367500000000001,-0.805,-0.4653610055539316,0.08389359836305174,-0.19847997661502484
1745336841.9427018,0.956846,-0.472628,0.055998,2.6425,9.152500000000002,3.43,-0.4682841274481146,0.08243203741596025,-0.20228003507746273
1745336841.946049,0.98881,-0.614026,0.40382,2.6250000000000004,7.945000000000001,1.7675,-0.4682841274481146,0.08243203741596025,-0.20228003507746273
1745336841.949128,1.179618,-0.673684,0.35502,7.840000000000001,-2.5025000000000004,-9.485000000000001,-0.4656533177433499,0.08097047646886875,-0.20315697164571764
1745336841.952443,0.91866,0.062464,-0.11468,6.282500000000001,5.0575,6.807500000000001,-0.4656533177433499,0.08097047646886875,-0.20315697164571764
1745336841.9557135,0.980636,-0.443592,0.254858,6.370000000000001,1.3125000000000002,-1.6625,-0.464776381175095,0.08126278865828705,-0.20052616194095294
1745336841.962612,2.010194,-0.332084,-0.187392,6.370000000000001,10.64,17.955000000000002,-0.4636071324174218,0.08564747149956153,-0.20374159602455422
1745336841.966568,1.11752,-0.37271,-0.21472,9.2925,23.135,-18.672500000000003,-0.4636071324174218,0.08564747149956153,-0.20374159602455422
1745336841.970697,0.485438,0.128832,0.310002,18.532500000000002,24.4475,5.1625000000000005,-0.4656533177433499,0.08389359836305174,-0.2057877813504823
1745336841.9741814,0.76006,0.408944,-0.179828,16.240000000000002,19.0925,28.507500000000004,-0.4656533177433499,0.08389359836305174,-0.20111078631978954
1745336841.9777558,1.8530579999999999,0.041114,0.433588,22.137500000000003,2.6425,29.942500000000003,-0.4656533177433499,0.08360128617363344,-0.20111078631978954
1745336841.981336,2.423042,-0.352458,-0.190686,20.44,31.657500000000002,11.742500000000001,-0.45425314235603625,0.08418591055247004,-0.20432622040339082
1745336841.9847486,1.712026,-0.351238,-0.14127599999999998,26.950000000000003,62.86000000000001,4.585000000000001,-0.45425314235603625,0.08418591055247004,-0.20432622040339082
1745336841.9880183,1.329068,-0.393938,0.5194759999999999,30.327500000000004,63.77,-6.8775,-0.45542239111370947,0.07863197895352236,-0.2098801520023385
1745336841.991318,1.540372,0.24326799999999998,0.438102,32.620000000000005,54.075,-0.17500000000000002,-0.45542239111370947,0.07863197895352236,-0.2098801520023385
1745336841.9944422,1.53293,0.34294199999999997,0.184464,28.542500000000004,47.46000000000001,9.940000000000001,-0.4539608301666179,0.08213972522654195,-0.21484945922244958
1745336841.997859,1.373232,-0.163846,0.118828,29.085000000000004,53.4975,6.737500000000001,-0.4539608301666179,0.08213972522654195,-0.21484945922244958
1745336842.0043662,1.107638,-0.12017,0.370514,32.13,50.59250000000001,2.4325,-0.45016077170418006,0.08243203741596025,-0.21894182987430577
1745336842.0084126,1.550254,-0.246684,0.26718,33.057500000000005,60.74250000000001,3.22,-0.4437299035369775,0.08097047646886875,-0.22274188833674363
1745336842.015074,1.855254,-0.41358,0.46787,39.585,66.99000000000001,-7.9625,-0.44343759134755917,0.08067816427945046,-0.2341420637240573
1745336842.0186505,0.6143919999999999,0.142252,0.227774,32.917500000000004,77.78750000000001,7.3325000000000005,-0.44343759134755917,0.08067816427945046,-0.2341420637240573
1745336842.0221965,0.5410699999999999,-0.548634,0.540826,35.945,73.36000000000001,-1.54,-0.433498976907337,0.08009353990061385,-0.23764980999707688
1745336842.0255814,1.036634,-0.003294,0.14249599999999998,36.89,62.61500000000001,-0.14,-0.433498976907337,0.08009353990061385,-0.23764980999707688
1745336842.0290034,1.055666,-0.167018,0.194346,36.907500000000006,76.17750000000001,9.7475,-0.43174510377082725,0.07833966676410406,-0.23998830751242325
1745336842.0324616,1.100684,-0.274134,0.355996,36.82,84.1225,4.3925,-0.43174510377082725,0.07833966676410406,-0.23998830751242325
1745336842.0357468,1.103368,-0.24326799999999998,0.50508,39.585,78.575,4.532500000000001,-0.42794504530838934,0.0707395498392283,-0.23881905875475007
1745336842.0399399,0.934886,-0.09528199999999999,0.28011199999999997,40.075,80.39500000000001,7.857500000000001,-0.42794504530838934,0.0707395498392283,-0.23881905875475007
1745336842.0447907,1.020774,-0.086132,0.433344,39.81250000000001,84.07000000000001,9.905000000000001,-0.41888336743642207,0.06927798889213681,-0.24700380005846242
1745336842.0485168,1.003084,-0.16836,0.314028,38.465,83.93,7.735,-0.41128325051154635,0.07161648640748319,-0.2560654779304297
1745336842.0519624,0.84058,-0.13017399999999998,0.211426,37.62500000000001,88.2,7.210000000000001,-0.41128325051154635,0.07161648640748319,-0.2560654779304297
1745336842.0554938,0.8145939999999999,-0.11053199999999999,0.51667,38.79750000000001,79.52000000000001,4.077500000000001,-0.4068985676702718,0.06927798889213681,-0.2569424144986846
1745336842.0590851,0.784948,-0.0068319999999999995,0.26535,37.2575,77.1225,4.1825,-0.4068985676702718,0.06927798889213681,-0.2569424144986846
1745336842.062607,0.97844,0.03172,0.384544,36.627500000000005,73.0275,4.8475,-0.40192926045016075,0.0686933645133002,-0.26425021923414205
1745336842.069092,1.076772,-0.019154,0.526186,31.500000000000004,75.11000000000001,7.402500000000001,-0.3952060800935399,0.06693949137679041,-0.26805027769657996
1745336842.0725029,0.823012,0.083814,0.613416,29.557500000000005,66.885,4.7250000000000005,-0.3952060800935399,0.06693949137679041,-0.26805027769657996
1745336842.0757864,0.80154,0.135908,0.402234,25.672500000000003,66.15,7.9975000000000005,-0.38731365097924586,0.06255480853551593,-0.26775796550716163
1745336842.0798793,0.880474,-0.009637999999999999,0.36051,22.942500000000003,64.96000000000001,0.0175,-0.3797135340543701,0.06050862320958784,-0.2706810874013446
1745336842.0844753,1.009062,0.155794,0.423828,19.1625,54.96750000000001,6.527500000000001,-0.3797135340543701,0.06050862320958784,-0.2706810874013446
1745336842.0884442,0.99491,0.039284,0.235948,13.72,56.87500000000001,5.5825000000000005,-0.371821104940076,0.058754750073078045,-0.2823735749780766
1745336842.0918674,0.986614,0.089792,0.384544,10.71,55.3875,4.970000000000001,-0.371821104940076,0.058754750073078045,-0.2823735749780766
1745336842.0954194,0.93147,0.053436,0.417972,10.027500000000002,45.185,3.22,-0.3694826074247296,0.05904706226249635,-0.27506577024261913
1745336842.0990045,0.87962,0.064538,0.362462,6.947500000000001,38.78,1.6625,-0.3694826074247296,0.05904706226249635,-0.27506577024261913
1745336842.1024966,0.906582,-0.038674,0.40748,6.6325,31.587500000000002,-0.5075000000000001,-0.36568254896229174,0.057293189125986556,-0.275942706810874
1745336842.105856,0.945622,0.078568,0.35953399999999996,4.83,27.930000000000003,-3.22,-0.36568254896229174,0.057293189125986556,-0.2797427652733119
1745336842.1092227,0.898896,0.067832,0.24631799999999998,1.0675000000000001,27.772500000000004,-6.335000000000001,-0.36275942706810876,0.052323881905875474,-0.2797427652733119
1745336842.112485,0.914878,0.09174399999999999,0.490928,-0.7350000000000001,16.625,-8.242500000000001,-0.36275942706810876,0.049693072201110786,-0.2800350774627302
1745336842.1158068,0.993202,0.113216,0.26839999999999997,-2.9050000000000002,14.5775,-6.580000000000001,-0.35808243203741597,0.049693072201110786,-0.2800350774627302
1745336842.1232033,1.028826,-0.002074,0.250832,-5.495,5.1275,-8.435,-0.35428237357497805,0.05203156971645718,-0.2855890090616779
1745336842.127282,1.03578,0.009516,0.279502,-8.8025,0.07,-9.2925,-0.3481438175971938,0.05378544285296697,-0.2744811458637825
1745336842.1307154,1.095072,0.0034159999999999998,0.203862,-9.6775,-0.07,-9.345,-0.3481438175971938,0.05378544285296697,-0.2744811458637825
1745336842.1342225,1.10715,-0.053436,0.274134,-12.180000000000001,-1.9250000000000003,-11.515,-0.3484361297866121,0.04852382344343759,-0.2741888336743642
1745336842.13776,1.071892,-0.049288,0.315248,-9.030000000000001,-5.232500000000001,-13.072500000000002,-0.3484361297866121,0.04852382344343759,-0.2741888336743642
1745336842.1412838,1.068842,-0.024399999999999998,0.297192,-14.962500000000002,-7.805000000000001,-13.650000000000002,-0.33966676410406316,0.045308389359836304,-0.2753580824320374
1745336842.1446683,1.132892,-0.021838,0.334768,-15.680000000000001,-12.46,-13.790000000000001,-0.33966676410406316,0.045308389359836304,-0.2753580824320374
1745336842.1479397,1.174494,-0.04819,0.304512,-18.0775,-12.512500000000001,-15.102500000000001,-0.34112832505115465,0.0464776381175095,-0.2738965214849459
1745336842.151266,1.17974,-0.0549,0.370148,-19.915000000000003,-14.892500000000002,-16.3275,-0.34112832505115465,0.0464776381175095,-0.2738965214849459
1745336842.1545234,1.157048,-0.062586,0.389668,-20.650000000000002,-16.66,-17.902500000000003,-0.33791289096755334,0.04501607717041801,-0.27097339959076294
1745336842.158435,1.164856,-0.08113,0.426878,-22.942500000000003,-21.997500000000002,-19.617500000000003,-0.33791289096755334,0.04501607717041801,-0.27097339959076294
1745336842.1633978,1.21939,-0.096746,0.393572,-25.812500000000004,-24.325000000000003,-19.845000000000002,-0.3332358959368606,0.04238526746565332,-0.2727272727272727
1745336842.1674156,1.260504,-0.107116,0.415288,-28.035000000000004,-27.142500000000002,-21.14,-0.3320666471791874,0.040631394329143526,-0.27097339959076294
1745336842.170853,1.291004,-0.125416,0.444446,-30.117500000000003,-28.945000000000004,-21.5425,-0.3320666471791874,0.040631394329143526,-0.27097339959076294
1745336842.1772227,1.301252,-0.14579,0.433588,-32.392500000000005,-32.06,-20.7025,-0.3250511546331482,0.04033908213972523,-0.26688102893890675
1745336842.180796,1.294176,-0.161894,0.44225,-34.002500000000005,-32.585,-21.455000000000002,-0.3270973399590763,0.03858520900321544,-0.2630809704764689
1745336842.1841903,1.297958,-0.16006399999999998,0.441884,-34.0375,-34.370000000000005,-22.032500000000002,-0.3270973399590763,0.03858520900321544,-0.2630809704764689
1745336842.187413,1.306376,-0.167872,0.44395799999999996,-34.720000000000006,-36.68000000000001,-24.115000000000002,-0.320958783981292,0.030692779888921367,-0.2589885998246127
1745336842.1908724,1.310524,-0.160552,0.439932,-31.552500000000002,-36.627500000000005,-24.290000000000003,-0.320958783981292,0.030692779888921367,-0.2589885998246127
1745336842.194163,1.297958,-0.165676,0.451766,-37.03,-37.695,-24.692500000000003,-0.3189125986553639,0.030985092078339667,-0.25460391698333823
1745336842.1981049,1.29625,-0.16043,0.457012,-37.905,-39.025000000000006,-24.955000000000002,-0.3189125986553639,0.02981584332066647,-0.2554808535515931
1745336842.202809,1.303204,-0.156526,0.472018,-39.27,-41.5275,-24.570000000000004,-0.3089739842151418,0.02981584332066647,-0.2554808535515931
1745336842.2074423,1.3169899999999999,-0.14945,0.461648,-40.915000000000006,-41.8425,-24.622500000000002,-0.3089739842151418,0.025138848289973693,-0.2513884828997369
1745336842.2111375,1.311378,-0.143716,0.465918,-42.175000000000004,-40.39,-25.480000000000004,-0.3089739842151418,0.025138848289973693,-0.24583455130078924
1745336842.2147448,1.292712,-0.135176,0.46616199999999997,-42.087500000000006,-42.42,-25.637500000000003,-0.310143232972815,0.025138848289973693,-0.24583455130078924
1745336842.2183044,1.274046,-0.127124,0.4758,-42.63,-42.157500000000006,-26.2325,-0.304296989184449,0.021923414206372407,-0.23940368313358668
1745336842.2217438,1.265628,-0.12383,0.473238,-43.75000000000001,-45.185,-26.477500000000003,-0.304296989184449,0.021923414206372407,-0.23940368313358668
1745336842.225351,1.270264,-0.11114199999999999,0.463966,-43.435,-45.220000000000006,-26.512500000000003,-0.2993276819643379,0.017246419175679626,-0.23881905875475007
1745336842.2313805,1.310036,-0.089792,0.453962,-44.362500000000004,-44.69500000000001,-26.477500000000003,-0.29961999415375623,0.015200233849751535,-0.2300496930722011
1745336842.2349343,1.29625,-0.093574,0.45078999999999997,-45.290000000000006,-42.035000000000004,-25.165000000000003,-0.29961999415375623,0.015200233849751535,-0.2300496930722011
1745336842.240866,1.3346799999999999,-0.098454,0.44956999999999997,-46.112500000000004,-41.9825,-25.970000000000002,-0.2978661210172464,0.012569424144986846,-0.22244957614732536
1745336842.2446094,1.34993,-0.091012,0.44090799999999997,-46.970000000000006,-41.9825,-24.01,-0.29698918444899153,0.01140017538731365,-0.21923414206372405
1745336842.2480814,1.3328499999999999,-0.082716,0.44395799999999996,-46.30500000000001,-38.220000000000006,-24.3075,-0.29698918444899153,0.01140017538731365,-0.21923414206372405
1745336842.2515647,1.316014,-0.08064199999999999,0.451766,-47.1625,-35.9275,-24.167500000000004,-0.28529669687225956,0.0014615609470914938,-0.21660333235895937
1745336842.2551706,1.291858,-0.07503,0.449204,-48.650000000000006,-39.13,-24.115000000000002,-0.28529669687225956,0.0014615609470914938,-0.21660333235895937
1745336842.2588122,1.266848,-0.07076,0.446886,-48.1775,-36.015,-23.292500000000004,-0.28588132125109617,0.0020461853259280912,-0.21397252265419467
1745336842.2622159,1.256844,-0.092842,0.45383999999999997,-48.615,-33.54750000000001,-22.540000000000003,-0.28588132125109617,0.0020461853259280912,-0.21397252265419467
1745336842.265384,1.262334,-0.059657999999999996,0.44225,-49.73500000000001,-33.355000000000004,-22.067500000000003,-0.2794504530838936,-0.0014615609470914938,-0.21601870798012276
1745336842.2687392,1.2774619999999999,-0.051972,0.44042,-49.87500000000001,-33.722500000000004,-19.880000000000003,-0.2794504530838936,-0.0014615609470914938,-0.21601870798012276
1745336842.2719176,1.289418,-0.058682,0.456768,-50.785000000000004,-31.517500000000002,-19.687500000000004,-0.2791581408944753,-0.009061677871967261,-0.21397252265419467
1745336842.275793,1.30418,-0.067588,0.441884,-51.135000000000005,-29.277500000000003,-19.285,-0.2791581408944753,-0.009061677871967261,-0.21397252265419467
1745336842.2851794,1.322724,-0.056729999999999996,0.472506,-53.935,-21.735000000000003,-19.145000000000003,-0.267173341128325,-0.020169541069862615,-0.20286465945629933
1745336842.2884333,1.335168,-0.070516,0.511424,-54.09250000000001,-17.290000000000003,-19.635,-0.267173341128325,-0.020169541069862615,-0.20286465945629933
1745336842.291913,1.36213,-0.068442,0.504592,-55.4575,-15.680000000000001,-19.0925,-0.2665887167494885,-0.02601578485822859,-0.19380298158433207
1745336842.2959936,1.34688,-0.0068319999999999995,0.495442,-57.697500000000005,-10.1675,-15.295000000000002,-0.2665887167494885,-0.02601578485822859,-0.19380298158433207
1745336842.299662,1.3108899999999999,-0.067344,0.47482399999999997,-58.24000000000001,-7.07,-15.102500000000001,-0.26834258988599824,-0.028061970184156678,-0.19497223034200525
1745336842.3030689,1.250988,-0.067344,0.465796,-59.6225,-4.2525,-14.962500000000002,-0.26834258988599824,-0.028061970184156678,-0.19497223034200525
1745336842.3062947,1.18584,-0.08113,0.418948,-60.13,-2.5025000000000004,-14.175,-0.26074247296112246,-0.03507746273019585,-0.19584916691026016
1745336842.309644,1.137284,-0.093086,0.414922,-60.462500000000006,-0.24500000000000002,-13.545000000000002,-0.26074247296112246,-0.03507746273019585,-0.19584916691026016
1745336842.3129058,1.134966,-0.100894,0.43371,-60.86500000000001,0.4025,-13.160000000000002,-0.2624963460976323,-0.03946214557147033,-0.19117217187956737
1745336842.3173435,1.139114,-0.094184,0.36234,-59.55250000000001,4.865,-11.9875,-0.259280912014031,-0.04150833089739842,-0.1870798012277112
1745336842.3221147,1.108736,-0.109556,0.396256,-59.11500000000001,7.3500000000000005,-9.905000000000001,-0.259280912014031,-0.04150833089739842,-0.1870798012277112
1745336842.3262746,1.108492,-0.098698,0.36783,-59.587500000000006,10.22,-8.8725,-0.25109617071031864,-0.0464776381175095,-0.1841566793335282
1745336842.329631,1.10349,-0.096258,0.3416,-58.99250000000001,12.740000000000002,-8.47,-0.25109617071031864,-0.050277696579947385,-0.1847413037123648
1745336842.3329067,1.106418,-0.060634,0.36112,-57.8025,15.662500000000001,-6.825000000000001,-0.2519731072785735,-0.050277696579947385,-0.1847413037123648
