Timestamp,Accel X,Accel Y,Accel Z,Gyro X,Gyro Y,Gyro Z,Magneto X,Magneto Y,Magneto Z
1742916222.1863475,1.004548,0.010369999999999999,0.033062,0.0,0.29750000000000004,0.4025,-0.6080093539900614,-0.12920198772288805,0.1873721134171295
1742916222.191153,1.00406,0.012565999999999999,0.036112,-0.0175,0.12250000000000001,0.21000000000000002,-0.6080093539900614,-0.12920198772288805,0.1873721134171295
1742916222.196026,1.006744,0.01464,0.035868,-0.07,0.36750000000000005,0.385,-0.6080093539900614,-0.12920198772288805,0.1873721134171295
1742916222.2008743,1.006134,0.016347999999999998,0.037454,-0.08750000000000001,0.42000000000000004,0.36750000000000005,-0.6080093539900614,-0.12920198772288805,0.1873721134171295
1742916222.2057388,1.005036,0.019032,0.0366,-0.08750000000000001,0.49000000000000005,0.42000000000000004,-0.6080093539900614,-0.12920198772288805,0.1873721134171295
1742916222.210606,1.003694,0.01891,0.039528,-0.08750000000000001,0.5775,0.5425000000000001,-0.6080093539900614,-0.12920198772288805,0.1873721134171295
1742916222.2154765,1.00101,0.017324,0.040382,-0.08750000000000001,0.5950000000000001,0.6125,-0.6080093539900614,-0.12920198772288805,0.1873721134171295
1742916222.2204542,1.001498,0.017202,0.040138,0.0,0.6125,0.7000000000000001,-0.6080093539900614,-0.12920198772288805,0.1873721134171295
1742916222.2253687,1.001132,0.01769,0.041846,0.07,0.525,0.6825000000000001,-0.6080093539900614,-0.12920198772288805,0.1873721134171295
1742916222.2301264,0.999668,0.017811999999999998,0.041968,0.052500000000000005,0.3325,0.6125,-0.6080093539900614,-0.12920198772288805,0.1873721134171295
1742916222.234987,1.000034,0.019398,0.041846,0.08750000000000001,0.14,0.49000000000000005,-0.6004092370651856,-0.12452499269219526,0.19117217187956737
1742916222.2398546,1.000278,0.021106,0.042456,0.10500000000000001,0.0175,0.42000000000000004,-0.6004092370651856,-0.12452499269219526,0.19117217187956737
1742916222.2447274,1.000278,0.021838,0.040748,0.07,0.052500000000000005,0.47250000000000003,-0.6004092370651856,-0.12452499269219526,0.19117217187956737
1742916222.2495918,1.001132,0.021106,0.042943999999999996,0.12250000000000001,-0.07,0.36750000000000005,-0.6004092370651856,-0.12452499269219526,0.19117217187956737
1742916222.2544587,1.00406,0.021471999999999998,0.039772,0.08750000000000001,-0.08750000000000001,0.5425000000000001,-0.6004092370651856,-0.12452499269219526,0.19117217187956737
1742916222.2593253,1.006134,0.020252,0.037576,0.0175,0.0,0.665,-0.6004092370651856,-0.12452499269219526,0.19117217187956737
1742916222.2641947,1.006012,0.016714,0.035013999999999997,0.035,0.08750000000000001,0.77,-0.6004092370651856,-0.12452499269219526,0.19117217187956737
1742916222.269063,1.00528,0.014274,0.036478,0.08750000000000001,0.10500000000000001,0.77,-0.6004092370651856,-0.12452499269219526,0.19117217187956737
1742916222.2739317,1.004792,0.012931999999999999,0.035136,0.10500000000000001,0.12250000000000001,0.7525000000000001,-0.6004092370651856,-0.12452499269219526,0.19117217187956737
1742916222.2787979,1.004304,0.010735999999999999,0.036722,0.10500000000000001,0.12250000000000001,0.5775,-0.6004092370651856,-0.12452499269219526,0.19000292312189418
1742916222.283684,1.002596,0.009271999999999999,0.035136,0.10500000000000001,-0.035,0.43750000000000006,-0.602747734580532,-0.12978661210172465,0.19000292312189418
1742916222.2886577,1.005402,0.010369999999999999,0.03538,0.0175,0.10500000000000001,0.49000000000000005,-0.602747734580532,-0.12978661210172465,0.19000292312189418
1742916222.293549,1.004792,0.011712,0.035502,0.0,0.07,0.3325,-0.602747734580532,-0.12978661210172465,0.19000292312189418
1742916222.2983258,1.006622,0.012931999999999999,0.033672,-0.0175,0.1925,0.45500000000000007,-0.602747734580532,-0.12978661210172465,0.19000292312189418
1742916222.303186,1.008086,0.010248,0.033794,-0.035,0.42000000000000004,0.6125,-0.602747734580532,-0.12978661210172465,0.19000292312189418
1742916222.308082,1.00345,0.010369999999999999,0.034648,0.035,0.47250000000000003,0.6475000000000001,-0.602747734580532,-0.12978661210172465,0.19000292312189418
1742916222.3129358,1.003084,0.0075639999999999995,0.035623999999999996,-0.052500000000000005,0.525,0.7000000000000001,-0.602747734580532,-0.12978661210172465,0.19000292312189418
1742916222.3177965,1.00101,0.005856,0.040015999999999996,0.0,0.5950000000000001,0.7525000000000001,-0.602747734580532,-0.12978661210172465,0.19000292312189418
1742916222.3226628,1.000644,0.008052,0.040015999999999996,0.08750000000000001,0.45500000000000007,0.5950000000000001,-0.602747734580532,-0.12978661210172465,0.19000292312189418
1742916222.32753,1.000644,0.00915,0.043188,0.12250000000000001,0.28,0.47250000000000003,-0.5963168664133295,-0.11867874890382929,0.185910552470038
1742916222.3323972,1.001254,0.013297999999999999,0.041114,0.08750000000000001,0.0175,0.17500000000000002,-0.5963168664133295,-0.11867874890382929,0.185910552470038
1742916222.3372667,1.002596,0.015982,0.040748,0.0,0.17500000000000002,0.385,-0.5963168664133295,-0.11867874890382929,0.185910552470038
1742916222.3421342,1.003084,0.017934,0.039406,-0.035,0.07,0.3325,-0.5963168664133295,-0.11867874890382929,0.185910552470038
1742916222.3470006,1.002962,0.01952,0.04026,0.052500000000000005,0.15750000000000003,0.43750000000000006,-0.5963168664133295,-0.11867874890382929,0.185910552470038
1742916222.3518686,1.001132,0.019886,0.038551999999999996,-0.0175,0.14,0.6125,-0.5963168664133295,-0.11867874890382929,0.185910552470038
1742916222.3567357,1.00406,0.019032,0.037332,0.0,0.21000000000000002,0.6825000000000001,-0.5963168664133295,-0.11867874890382929,0.185910552470038
1742916222.3616045,1.002352,0.020007999999999998,0.037698,-0.052500000000000005,0.22750000000000004,0.7000000000000001,-0.5963168664133295,-0.11867874890382929,0.185910552470038
1742916222.3664737,1.003206,0.02013,0.039528,0.0,0.12250000000000001,0.5950000000000001,-0.5963168664133295,-0.11867874890382929,0.185910552470038
1742916222.3713403,1.003084,0.019398,0.03782,-0.0175,0.035,0.47250000000000003,-0.5963168664133295,-0.11867874890382929,0.185910552470038
1742916222.3762076,1.002962,0.019886,0.034404,-0.08750000000000001,-0.10500000000000001,0.29750000000000004,-0.6039169833382052,-0.12218649517684887,0.19117217187956737
1742916222.3810835,1.005036,0.021594,0.03599,-0.12250000000000001,0.12250000000000001,0.56,-0.6039169833382052,-0.12218649517684887,0.19117217187956737
1742916222.3929284,1.006134,0.021228,0.034526,-0.14,0.14,0.47250000000000003,-0.6039169833382052,-0.12218649517684887,0.19117217187956737
1742916222.3960023,1.005036,0.018056,0.035502,-0.07,0.22750000000000004,0.5425000000000001,-0.6039169833382052,-0.12218649517684887,0.19117217187956737
1742916222.4008708,1.005524,0.017934,0.035623999999999996,-0.0175,0.28,0.5775,-0.6039169833382052,-0.12218649517684887,0.19117217187956737
1742916222.4057512,1.005768,0.013786,0.03538,-0.12250000000000001,0.385,0.6825000000000001,-0.6039169833382052,-0.12218649517684887,0.19117217187956737
1742916222.410616,1.003206,0.011956,0.035136,-0.0175,0.4025,0.7350000000000001,-0.6039169833382052,-0.12218649517684887,0.19117217187956737
1742916222.415483,1.00284,0.010248,0.037698,-0.07,0.42000000000000004,0.665,-0.6039169833382052,-0.12218649517684887,0.19117217187956737
1742916222.4203527,1.002352,0.010003999999999999,0.039528,-0.052500000000000005,0.4025,0.56,-0.6004092370651856,-0.12043262204033908,0.19818766442560654
1742916222.4252253,1.00345,0.009516,0.039406,-0.08750000000000001,0.1925,0.29750000000000004,-0.6004092370651856,-0.12043262204033908,0.19818766442560654
1742916222.4300952,1.001986,0.0068319999999999995,0.040504,-0.14,0.3325,0.5075000000000001,-0.6004092370651856,-0.12043262204033908,0.19818766442560654
1742916222.4349656,1.00284,0.010248,0.040015999999999996,-0.1925,0.24500000000000002,0.36750000000000005,-0.6004092370651856,-0.12043262204033908,0.19818766442560654
1742916222.4398344,1.00345,0.00976,0.040992,-0.14,0.21000000000000002,0.45500000000000007,-0.6004092370651856,-0.12043262204033908,0.19818766442560654
1742916222.4476488,1.002718,0.008662,0.03904,-0.12250000000000001,0.28,0.6825000000000001,-0.6004092370651856,-0.12043262204033908,0.19818766442560654
1742916222.4507008,1.003328,0.010735999999999999,0.038186,-0.12250000000000001,0.29750000000000004,0.6825000000000001,-0.6004092370651856,-0.12043262204033908,0.19818766442560654
1742916222.4555676,1.003694,0.009516,0.038186,0.0175,0.17500000000000002,0.7175,-0.6004092370651856,-0.12043262204033908,0.19818766442560654
1742916222.4604387,1.000766,0.008052,0.037454,-0.0175,0.08750000000000001,0.6300000000000001,-0.6004092370651856,-0.12043262204033908,0.19818766442560654
1742916222.4653115,0.999668,0.008905999999999999,0.037454,-0.052500000000000005,0.0175,0.525,-0.6004092370651856,-0.12043262204033908,0.19818766442560654
1742916222.4701812,1.001986,0.012688,0.03721,0.0,-0.17500000000000002,0.3325,-0.6091786027477346,-0.11926337328266588,0.1882490499853844
1742916222.4750502,1.00406,0.015738,0.035746,0.0175,0.0,0.47250000000000003,-0.6091786027477346,-0.11926337328266588,0.1882490499853844
1742916222.4799266,1.00589,0.017446,0.034526,0.052500000000000005,-0.08750000000000001,0.3325,-0.6091786027477346,-0.11926337328266588,0.1882490499853844
1742916222.4848046,1.006622,0.02196,0.034038,0.052500000000000005,-0.035,0.45500000000000007,-0.6091786027477346,-0.11926337328266588,0.1882490499853844
1742916222.4896681,1.008696,0.020496,0.034038,0.0,0.12250000000000001,0.5075000000000001,-0.6091786027477346,-0.11926337328266588,0.1882490499853844
1742916222.4945505,1.006744,0.022326,0.036112,0.035,0.2625,0.6125,-0.6091786027477346,-0.11926337328266588,0.1882490499853844
1742916222.5016444,1.00467,0.018666,0.034282,-0.052500000000000005,0.385,0.6825000000000001,-0.6091786027477346,-0.11926337328266588,0.1882490499853844
1742916222.5046306,1.003084,0.019886,0.036844,-0.0175,0.525,0.7175,-0.6091786027477346,-0.11926337328266588,0.1882490499853844
1742916222.509495,1.004182,0.021471999999999998,0.036112,0.0175,0.4025,0.5075000000000001,-0.6091786027477346,-0.11926337328266588,0.1882490499853844
1742916222.5143647,1.003938,0.02318,0.038551999999999996,-0.035,0.43750000000000006,0.525,-0.6021631102016954,-0.12627886582870507,0.17714118678748902
1742916222.5192423,1.003328,0.020252,0.038308,-0.21000000000000002,0.24500000000000002,0.31500000000000006,-0.6021631102016954,-0.12627886582870507,0.17714118678748902
1742916222.5241103,1.003938,0.022082,0.038064,-0.22750000000000004,0.45500000000000007,0.5425000000000001,-0.6021631102016954,-0.12627886582870507,0.17714118678748902
1742916222.5289922,1.003084,0.022203999999999998,0.040748,-0.14,0.42000000000000004,0.45500000000000007,-0.6021631102016954,-0.12627886582870507,0.17714118678748902
1742916222.5338576,1.002352,0.020252,0.04087,-0.1925,0.31500000000000006,0.49000000000000005,-0.6021631102016954,-0.12627886582870507,0.17714118678748902
1742916222.5387275,1.00284,0.018056,0.04087,-0.035,0.36750000000000005,0.5950000000000001,-0.6021631102016954,-0.12627886582870507,0.17714118678748902
1742916222.543607,1.001254,0.015127999999999999,0.040504,-0.052500000000000005,0.31500000000000006,0.5950000000000001,-0.6021631102016954,-0.12627886582870507,0.17714118678748902
1742916222.5484717,1.00162,0.01342,0.040504,-0.035,0.21000000000000002,0.6475000000000001,-0.6021631102016954,-0.12627886582870507,0.17714118678748902
1742916222.554774,1.0004,0.009882,0.041602,0.08750000000000001,0.08750000000000001,0.665,-0.6021631102016954,-0.12627886582870507,0.17714118678748902
1742916222.5582159,1.0004,0.009882,0.041602,0.08750000000000001,0.08750000000000001,0.5075000000000001,-0.6021631102016954,-0.12627886582870507,0.17714118678748902
1742916222.563085,1.001864,0.009637999999999999,0.040382,0.10500000000000001,-0.15750000000000003,0.36750000000000005,-0.6080093539900614,-0.12218649517684887,0.17392575270388774
1742916222.5679653,1.002962,0.009271999999999999,0.039162,0.08750000000000001,-0.07,0.56,-0.6080093539900614,-0.12218649517684887,0.17392575270388774
1742916222.572835,1.00223,0.009882,0.039284,0.052500000000000005,-0.0175,0.43750000000000006,-0.6080093539900614,-0.12218649517684887,0.17392575270388774
1742916222.5777073,1.003816,0.009637999999999999,0.03599,-0.07,0.0,0.45500000000000007,-0.6080093539900614,-0.12218649517684887,0.17392575270388774
1742916222.5825713,1.00345,0.00915,0.036234,-0.052500000000000005,0.0175,0.5775,-0.6080093539900614,-0.12218649517684887,0.17392575270388774
1742916222.5874357,1.005158,0.009516,0.035013999999999997,-0.035,0.15750000000000003,0.5950000000000001,-0.6080093539900614,-0.12218649517684887,0.17392575270388774
1742916222.592308,1.006012,0.00793,0.03477,0.0175,0.24500000000000002,0.6475000000000001,-0.6080093539900614,-0.12218649517684887,0.17392575270388774
1742916222.5971816,1.00345,0.008539999999999999,0.033428,-0.0175,0.31500000000000006,0.6475000000000001,-0.6080093539900614,-0.12218649517684887,0.17392575270388774
1742916222.6020467,1.00467,0.009882,0.034282,-0.0175,0.29750000000000004,0.6300000000000001,-0.6080093539900614,-0.12218649517684887,0.17392575270388774
1742916222.607891,1.00467,0.010369999999999999,0.03721,-0.035,0.3325,0.525,-0.6080093539900614,-0.12394036831335867,0.1841566793335282
1742916222.6117966,1.003694,0.013297999999999999,0.037332,0.0175,0.22750000000000004,0.29750000000000004,-0.605670856474715,-0.12394036831335867,0.1841566793335282
1742916222.61667,1.003816,0.016347999999999998,0.03538,-0.12250000000000001,0.24500000000000002,0.45500000000000007,-0.605670856474715,-0.12394036831335867,0.1841566793335282
1742916222.62154,1.003572,0.020252,0.037087999999999996,-0.08750000000000001,0.35000000000000003,0.4025,-0.605670856474715,-0.12394036831335867,0.1841566793335282
1742916222.626407,1.004548,0.018422,0.037454,-0.08750000000000001,0.35000000000000003,0.4025,-0.605670856474715,-0.12394036831335867,0.1841566793335282
1742916222.631282,1.004792,0.019886,0.038308,-0.07,0.35000000000000003,0.56,-0.605670856474715,-0.12394036831335867,0.1841566793335282
1742916222.636154,1.002596,0.02013,0.038308,-0.052500000000000005,0.36750000000000005,0.5775,-0.605670856474715,-0.12394036831335867,0.1841566793335282
1742916222.6410298,1.001986,0.020496,0.040138,0.0,0.43750000000000006,0.665,-0.605670856474715,-0.12394036831335867,0.1841566793335282
1742916222.645896,1.0004,0.02013,0.039772,0.052500000000000005,0.4025,0.6475000000000001,-0.605670856474715,-0.12394036831335867,0.1841566793335282
1742916222.6507688,0.999424,0.018178,0.040992,0.035,0.28,0.6300000000000001,-0.605670856474715,-0.12394036831335867,0.1841566793335282
1742916222.6556463,1.000644,0.021106,0.040504,0.07,0.12250000000000001,0.49000000000000005,-0.605670856474715,-0.12160187079801228,0.1847413037123648
1742916222.661231,1.001376,0.019154,0.038186,0.08750000000000001,0.0175,0.5425000000000001,-0.605670856474715,-0.12160187079801228,0.1847413037123648
1742916222.6653862,1.003206,0.022082,0.04026,0.08750000000000001,0.0175,0.5425000000000001,-0.605670856474715,-0.12160187079801228,0.1847413037123648
1742916222.6702573,1.00162,0.020984,0.03965,0.07,-0.035,0.525,-0.605670856474715,-0.12160187079801228,0.1847413037123648
1742916222.675129,1.004548,0.02013,0.03782,-0.10500000000000001,0.0175,0.5950000000000001,-0.605670856474715,-0.12160187079801228,0.1847413037123648
1742916222.6799998,1.003694,0.017324,0.037454,-0.21000000000000002,0.07,0.665,-0.605670856474715,-0.12160187079801228,0.1847413037123648
1742916222.6848729,1.004792,0.01464,0.036722,-0.14,0.052500000000000005,0.6825000000000001,-0.605670856474715,-0.12160187079801228,0.1847413037123648
1742916222.6897457,1.004792,0.012931999999999999,0.034648,-0.15750000000000003,0.15750000000000003,0.6475000000000001,-0.605670856474715,-0.12160187079801228,0.1847413037123648
1742916222.694617,1.006378,0.010858,0.03477,-0.10500000000000001,0.10500000000000001,0.6300000000000001,-0.605670856474715,-0.12160187079801228,0.1847413037123648
1742916222.6994822,1.005036,0.009882,0.03599,-0.052500000000000005,0.15750000000000003,0.56,-0.605670856474715,-0.12160187079801228,0.1847413037123648
1742916222.7043548,1.004548,0.008052,0.034282,-0.07,0.08750000000000001,0.3325,-0.5980707395498392,-0.12394036831335867,0.1844489915229465
1742916222.7092304,1.00345,0.010614,0.036478,-0.08750000000000001,0.2625,0.525,-0.5980707395498392,-0.12394036831335867,0.1844489915229465
1742916222.7148058,1.00284,0.008784,0.034038,-0.035,0.3325,0.49000000000000005,-0.5980707395498392,-0.12394036831335867,0.1844489915229465
1742916222.7189724,1.005768,0.01098,0.035868,-0.07,0.31500000000000006,0.49000000000000005,-0.5980707395498392,-0.12394036831335867,0.1844489915229465
1742916222.7238445,1.004182,0.009028,0.03599,-0.035,0.385,0.47250000000000003,-0.5980707395498392,-0.12394036831335867,0.1844489915229465
1742916222.7287111,1.004792,0.012565999999999999,0.037454,0.0175,0.45500000000000007,0.6125,-0.5980707395498392,-0.12394036831335867,0.1844489915229465
1742916222.733581,1.003938,0.009394,0.038064,0.035,0.42000000000000004,0.665,-0.5980707395498392,-0.12394036831335867,0.1844489915229465
1742916222.738451,1.00162,0.010003999999999999,0.040504,-0.035,0.49000000000000005,0.6475000000000001,-0.5980707395498392,-0.12394036831335867,0.1844489915229465
1742916222.7434626,1.000278,0.010492,0.038674,-0.0175,0.43750000000000006,0.5425000000000001,-0.5980707395498392,-0.12394036831335867,0.1844489915229465
1742916222.748214,0.999912,0.01342,0.042334,0.0,0.3325,0.47250000000000003,-0.5980707395498392,-0.12394036831335867,0.1844489915229465
1742916222.7530856,1.001864,0.015372,0.041846,0.0175,0.052500000000000005,0.35000000000000003,-0.6004092370651856,-0.12277111955568547,0.17977199649225373
1742916222.7579536,1.001498,0.016592,0.043798,0.052500000000000005,0.08750000000000001,0.5075000000000001,-0.6004092370651856,-0.12277111955568547,0.17977199649225373
1742916222.7628279,1.002962,0.01769,0.04087,-0.035,0.08750000000000001,0.5075000000000001,-0.6004092370651856,-0.12277111955568547,0.17977199649225373
1742916222.7684228,1.00223,0.020862,0.039772,0.0,0.08750000000000001,0.5775,-0.6004092370651856,-0.12277111955568547,0.17977199649225373
1742916222.77257,1.001498,0.01891,0.03904,-0.07,0.10500000000000001,0.5775,-0.6004092370651856,-0.12277111955568547,0.17977199649225373
1742916222.7774436,1.002962,0.02013,0.038064,-0.035,0.035,0.5775,-0.6004092370651856,-0.12277111955568547,0.17977199649225373
1742916222.782315,1.003328,0.020007999999999998,0.037942,0.07,0.10500000000000001,0.7350000000000001,-0.6004092370651856,-0.12277111955568547,0.17977199649225373
1742916222.787186,1.005036,0.02135,0.038186,0.052500000000000005,0.052500000000000005,0.6125,-0.6004092370651856,-0.12277111955568547,0.17977199649225373
1742916222.7920592,1.002718,0.018056,0.036722,4.445,0.052500000000000005,0.525,-0.6004092370651856,-0.12277111955568547,0.17977199649225373
1742916222.7969298,1.00467,0.020618,0.034892,0.052500000000000005,-0.035,0.35000000000000003,-0.6015784858228588,-0.12510961707103185,0.18181818181818182
1742916222.8018053,1.006622,0.020739999999999998,0.034526,0.035,0.08750000000000001,0.525,-0.6015784858228588,-0.12510961707103185,0.18181818181818182
1742916222.8066728,1.00528,0.020374,0.034159999999999996,-0.12250000000000001,0.17500000000000002,0.5075000000000001,-0.6015784858228588,-0.12510961707103185,0.18181818181818182
1742916222.811545,1.005524,0.017079999999999998,0.033549999999999996,-0.15750000000000003,0.29750000000000004,0.49000000000000005,-0.6015784858228588,-0.12510961707103185,0.18181818181818182
1742916222.8164234,1.004548,0.017079999999999998,0.034892,-0.22750000000000004,0.4025,0.5775,-0.6015784858228588,-0.12510961707103185,0.18181818181818182
1742916222.8220139,1.003328,0.015372,0.035136,-0.22750000000000004,0.43750000000000006,0.6300000000000001,-0.6015784858228588,-0.12510961707103185,0.18181818181818182
1742916222.8261633,1.00406,0.013908,0.036112,-0.22750000000000004,0.47250000000000003,0.665,-0.6015784858228588,-0.12510961707103185,0.18181818181818182
1742916222.8310363,1.002718,0.011467999999999999,0.035502,-0.15750000000000003,0.35000000000000003,0.6300000000000001,-0.6015784858228588,-0.12510961707103185,0.18181818181818182
1742916222.8359158,1.001132,0.008905999999999999,0.038064,0.0,0.36750000000000005,0.5775,-0.6015784858228588,-0.12510961707103185,0.18181818181818182
1742916222.840795,1.001864,0.009271999999999999,0.038918,0.035,0.3325,0.5075000000000001,-0.6015784858228588,-0.12510961707103185,0.18181818181818182
1742916222.8456616,1.001376,0.009637999999999999,0.040138,0.0175,0.24500000000000002,0.35000000000000003,-0.6109324758842444,-0.1356328558900906,0.17831043554516224
1742916222.8505192,1.00223,0.010003999999999999,0.038551999999999996,0.052500000000000005,0.21000000000000002,0.5075000000000001,-0.6109324758842444,-0.1356328558900906,0.17831043554516224
1742916222.8553877,1.002474,0.00915,0.04087,0.0175,0.22750000000000004,0.5425000000000001,-0.6109324758842444,-0.1356328558900906,0.17831043554516224
1742916222.8602586,1.004182,0.011101999999999999,0.038918,0.07,0.1925,0.5075000000000001,-0.6109324758842444,-0.1356328558900906,0.17831043554516224
1742916222.8651302,1.003572,0.010248,0.038918,0.07,0.17500000000000002,0.56,-0.6109324758842444,-0.1356328558900906,0.17831043554516224
1742916222.8700109,1.003938,0.012078,0.039284,0.10500000000000001,0.17500000000000002,0.5950000000000001,-0.6109324758842444,-0.1356328558900906,0.17831043554516224
1742916222.875594,1.003816,0.010126,0.037942,0.10500000000000001,0.10500000000000001,0.5775,-0.6109324758842444,-0.1356328558900906,0.17831043554516224
1742916222.8797472,1.00284,0.011224,0.037942,0.035,0.14,0.6475000000000001,-0.6109324758842444,-0.1356328558900906,0.17831043554516224
1742916222.8846202,1.003328,0.013908,0.037332,0.14,0.035,0.525,-0.6109324758842444,-0.1356328558900906,0.17831043554516224
1742916222.8894882,1.002718,0.01342,0.038551999999999996,0.035,0.052500000000000005,0.56,-0.6109324758842444,-0.1356328558900906,0.17831043554516224
1742916222.894362,1.00467,0.016836,0.037454,-0.07,0.0,0.36750000000000005,-0.6068401052323882,-0.12978661210172465,0.18386436714410992
1742916222.899235,1.005036,0.017079999999999998,0.03599,-0.08750000000000001,-0.035,0.5425000000000001,-0.6068401052323882,-0.12978661210172465,0.18386436714410992
1742916222.9041038,1.004914,0.01891,0.036234,-0.12250000000000001,0.21000000000000002,0.525,-0.6068401052323882,-0.12978661210172465,0.18386436714410992
1742916222.9089794,1.006744,0.01952,0.035746,-0.07,0.22750000000000004,0.5075000000000001,-0.6068401052323882,-0.12978661210172465,0.18386436714410992
1742916222.9138463,1.004548,0.021716,0.034526,-0.052500000000000005,0.31500000000000006,0.5950000000000001,-0.6068401052323882,-0.12978661210172465,0.18386436714410992
1742916222.9187198,1.005524,0.020862,0.0366,-0.10500000000000001,0.35000000000000003,0.5950000000000001,-0.6068401052323882,-0.12978661210172465,0.18386436714410992
1742916222.923593,1.003694,0.019642,0.037698,-0.035,0.385,0.6300000000000001,-0.6068401052323882,-0.12978661210172465,0.18386436714410992
1742916222.9291773,1.001132,0.019398,0.03721,0.0175,0.42000000000000004,0.5950000000000001,-0.6068401052323882,-0.12978661210172465,0.18386436714410992
1742916222.9333339,1.00223,0.018543999999999998,0.03721,-0.10500000000000001,0.42000000000000004,0.5425000000000001,-0.6068401052323882,-0.12978661210172465,0.18386436714410992
1742916222.938203,1.00284,0.020496,0.038308,0.0175,0.2625,0.4025,-0.5980707395498392,-0.12452499269219526,0.185910552470038
1742916222.9430718,1.001132,0.017811999999999998,0.039284,0.07,0.22750000000000004,0.45500000000000007,-0.5980707395498392,-0.12452499269219526,0.185910552470038
1742916222.9479432,1.005158,0.018056,0.040138,0.07,0.31500000000000006,0.56,-0.5980707395498392,-0.12452499269219526,0.185910552470038
1742916222.952814,1.002474,0.01647,0.03904,0.0,0.24500000000000002,0.5425000000000001,-0.5980707395498392,-0.12452499269219526,0.185910552470038
1742916222.9576948,1.003328,0.016226,0.039894,0.035,0.21000000000000002,0.56,-0.5980707395498392,-0.12452499269219526,0.185910552470038
1742916222.9625652,1.002596,0.013054,0.039406,-0.07,0.22750000000000004,0.5950000000000001,-0.5980707395498392,-0.12452499269219526,0.185910552470038
1742916222.967433,1.002474,0.012931999999999999,0.039406,-0.07,0.1925,0.665,-0.5980707395498392,-0.12452499269219526,0.185910552470038
1742916222.9723017,1.00284,0.010003999999999999,0.039284,-0.08750000000000001,0.1925,0.6300000000000001,-0.5980707395498392,-0.12452499269219526,0.185910552470038
1742916222.9771829,1.001498,0.010369999999999999,0.03843,-0.07,0.07,0.5950000000000001,-0.5980707395498392,-0.12452499269219526,0.185910552470038
1742916222.9827542,1.003694,0.010614,0.038918,-0.08750000000000001,0.052500000000000005,0.5950000000000001,-0.5980707395498392,-0.12452499269219526,0.185910552470038
1742916222.9869149,1.002962,0.009882,0.038796,-0.052500000000000005,-0.035,0.49000000000000005,-0.6009938614440222,-0.11750950014615609,0.18386436714410992
1742916222.9917855,1.00223,0.009882,0.036234,-0.0175,-0.17500000000000002,0.4025,-0.6009938614440222,-0.11750950014615609,0.18386436714410992
1742916222.996652,1.004182,0.010614,0.0366,-0.10500000000000001,0.12250000000000001,0.5775,-0.6009938614440222,-0.11750950014615609,0.18386436714410992
1742916223.0015178,1.004548,0.012199999999999999,0.035502,-0.15750000000000003,0.08750000000000001,0.45500000000000007,-0.6009938614440222,-0.11750950014615609,0.18386436714410992
1742916223.0063846,1.00589,0.011712,0.03599,-0.14,0.15750000000000003,0.5425000000000001,-0.6009938614440222,-0.11750950014615609,0.18386436714410992
1742916223.01125,1.004548,0.015372,0.034282,-0.12250000000000001,0.1925,0.5950000000000001,-0.6009938614440222,-0.11750950014615609,0.18386436714410992
1742916223.0161312,1.005646,0.013054,0.035258,-0.12250000000000001,0.3325,0.525,-0.6009938614440222,-0.11750950014615609,0.18386436714410992
1742916223.020992,1.004914,0.011956,0.032818,-0.08750000000000001,0.385,0.56,-0.6009938614440222,-0.11750950014615609,0.18386436714410992
1742916223.0258598,1.005158,0.016347999999999998,0.036356,-0.12250000000000001,0.35000000000000003,0.49000000000000005,-0.6009938614440222,-0.11750950014615609,0.18386436714410992
1742916223.0307305,1.002718,0.01586,0.035258,-0.08750000000000001,0.36750000000000005,0.4025,-0.6009938614440222,-0.12627886582870507,0.19029523531131248
1742916223.0363007,1.001742,0.020007999999999998,0.040015999999999996,-0.12250000000000001,0.2625,0.4025,-0.6045016077170418,-0.12627886582870507,0.19029523531131248
1742916223.0404632,1.001742,0.020007999999999998,0.040382,0.0175,0.45500000000000007,0.56,-0.6045016077170418,-0.12627886582870507,0.19029523531131248
1742916223.045333,1.001742,0.019398,0.03843,-0.07,0.28,0.45500000000000007,-0.6045016077170418,-0.12627886582870507,0.19029523531131248
1742916223.0501993,1.000522,0.019764,0.03965,-0.15750000000000003,0.36750000000000005,0.56,-0.6045016077170418,-0.12627886582870507,0.19029523531131248
1742916223.055068,1.002718,0.020618,0.041602,-0.14,0.36750000000000005,0.5775,-0.6045016077170418,-0.12627886582870507,0.19029523531131248
1742916223.0599353,1.001254,0.018178,0.03904,-0.12250000000000001,0.35000000000000003,0.525,-0.6045016077170418,-0.12627886582870507,0.19029523531131248
1742916223.0648043,1.001742,0.019275999999999998,0.039406,-0.1925,0.24500000000000002,0.5950000000000001,-0.6045016077170418,-0.12627886582870507,0.19029523531131248
1742916223.0696778,1.001742,0.018178,0.042456,-0.15750000000000003,0.22750000000000004,0.665,-0.6045016077170418,-0.12627886582870507,0.19029523531131248
1742916223.0745533,1.001864,0.0183,0.043432,-0.1925,0.17500000000000002,0.5775,-0.6045016077170418,-0.12627886582870507,0.19029523531131248
1742916223.0794241,1.00345,0.019154,0.038796,-0.10500000000000001,-0.035,0.45500000000000007,-0.605670856474715,-0.12452499269219526,0.18181818181818182
1742916223.0842938,1.001254,0.017202,0.037087999999999996,-0.052500000000000005,-0.08750000000000001,0.47250000000000003,-0.605670856474715,-0.12452499269219526,0.18181818181818182
1742916223.089883,1.004182,0.014761999999999999,0.03721,-0.08750000000000001,0.035,0.665,-0.605670856474715,-0.12452499269219526,0.18181818181818182
1742916223.0940282,1.004304,0.017324,0.037454,-0.12250000000000001,0.10500000000000001,0.6300000000000001,-0.605670856474715,-0.12452499269219526,0.18181818181818182
1742916223.0988948,1.006012,0.013542,0.03599,-0.14,0.08750000000000001,0.5425000000000001,-0.605670856474715,-0.12452499269219526,0.18181818181818182
1742916223.1037645,1.00162,0.01281,0.034282,-0.10500000000000001,0.10500000000000001,0.5950000000000001,-0.605670856474715,-0.12452499269219526,0.18181818181818182
1742916223.108635,1.00467,0.012322,0.035746,-0.12250000000000001,0.10500000000000001,0.6300000000000001,-0.605670856474715,-0.12452499269219526,0.18181818181818182
1742916223.1135018,1.00345,0.010858,0.034404,-0.12250000000000001,0.12250000000000001,0.6300000000000001,-0.605670856474715,-0.12452499269219526,0.18181818181818182
1742916223.1183698,1.00406,0.010492,0.033428,-0.14,0.22750000000000004,0.5950000000000001,-0.605670856474715,-0.12452499269219526,0.18181818181818182
1742916223.123236,1.004548,0.010492,0.035502,-0.10500000000000001,0.24500000000000002,0.525,-0.605670856474715,-0.12452499269219526,0.18181818181818182
1742916223.1281064,1.003694,0.012322,0.03477,-0.15750000000000003,0.22750000000000004,0.45500000000000007,-0.5957322420344928,-0.12861736334405144,0.1809412452499269
1742916223.132972,1.005036,0.00976,0.040626,-0.12250000000000001,0.15750000000000003,0.5775,-0.5957322420344928,-0.12861736334405144,0.1809412452499269
1742916223.1378458,1.004304,0.010858,0.034892,-0.08750000000000001,0.42000000000000004,0.47250000000000003,-0.5957322420344928,-0.12861736334405144,0.1809412452499269
1742916223.1492915,1.001742,0.012565999999999999,0.04087,-0.052500000000000005,0.43750000000000006,0.5425000000000001,-0.5957322420344928,-0.12861736334405144,0.1809412452499269
1742916223.1521611,1.000644,0.01342,0.036234,-0.052500000000000005,0.36750000000000005,0.56,-0.5957322420344928,-0.12861736334405144,0.1809412452499269
1742916223.1570475,1.001376,0.01342,0.042334,-0.08750000000000001,0.22750000000000004,0.49000000000000005,-0.5957322420344928,-0.12861736334405144,0.1809412452499269
1742916223.1619008,0.999424,0.015127999999999999,0.038918,0.0,0.2625,0.5425000000000001,-0.5957322420344928,-0.12861736334405144,0.1809412452499269
1742916223.1667721,1.00162,0.014884,0.038551999999999996,-0.08750000000000001,0.22750000000000004,0.5425000000000001,-0.5957322420344928,-0.12861736334405144,0.1809412452499269
1742916223.1716392,0.999912,0.017568,0.040015999999999996,-0.0175,0.14,0.5075000000000001,-0.5957322420344928,-0.12218649517684887,0.18035662087109033
1742916223.1765044,1.002352,0.020252,0.042334,-0.052500000000000005,-0.08750000000000001,0.4025,-0.6103478515054078,-0.12218649517684887,0.18035662087109033
1742916223.1813748,1.001864,0.020496,0.038674,-0.14,0.052500000000000005,0.6125,-0.6103478515054078,-0.12218649517684887,0.18035662087109033
1742916223.1862402,1.002352,0.020984,0.036966,-0.15750000000000003,-0.052500000000000005,0.5075000000000001,-0.6103478515054078,-0.12218649517684887,0.18035662087109033
1742916223.191108,1.005158,0.02257,0.038551999999999996,-0.07,0.035,0.56,-0.6103478515054078,-0.12218649517684887,0.18035662087109033
1742916223.1959755,1.00284,0.020007999999999998,0.03538,-0.10500000000000001,0.0175,0.5775,-0.6103478515054078,-0.12218649517684887,0.18035662087109033
1742916223.2038171,1.00223,0.020739999999999998,0.03904,-0.10500000000000001,0.07,0.6475000000000001,-0.6103478515054078,-0.12218649517684887,0.18035662087109033
1742916223.2066958,1.003206,0.01769,0.035136,-0.10500000000000001,0.07,0.6475000000000001,-0.6103478515054078,-0.12218649517684887,0.18035662087109033
1742916223.211564,1.004426,0.018422,0.036112,-0.035,0.12250000000000001,0.56,-0.6103478515054078,-0.12218649517684887,0.18035662087109033
1742916223.2164297,1.00528,0.018056,0.034404,-0.07,0.15750000000000003,0.5950000000000001,-0.6103478515054078,-0.12218649517684887,0.18035662087109033
1742916223.221408,1.00406,0.017202,0.035868,-0.10500000000000001,0.1925,0.5075000000000001,-0.6015784858228588,-0.1163402513884829,0.1853259280912014
1742916223.2262955,1.005524,0.016104,0.034526,-0.052500000000000005,0.0175,0.3325,-0.6015784858228588,-0.1163402513884829,0.1853259280912014
1742916223.231081,1.004548,0.01525,0.035502,-0.07,0.35000000000000003,0.525,-0.6015784858228588,-0.1163402513884829,0.1853259280912014
1742916223.235948,1.00467,0.013176,0.035746,-0.035,0.45500000000000007,0.5425000000000001,-0.6015784858228588,-0.1163402513884829,0.1853259280912014
1742916223.2408195,1.003694,0.012931999999999999,0.036234,-0.21000000000000002,0.525,0.56,-0.6015784858228588,-0.1163402513884829,0.1853259280912014
1742916223.245687,1.004182,0.013054,0.037942,-0.14,0.47250000000000003,0.56,-0.6015784858228588,-0.1163402513884829,0.1853259280912014
1742916223.2505586,1.002474,0.010369999999999999,0.039162,-0.10500000000000001,0.5075000000000001,0.5950000000000001,-0.6015784858228588,-0.1163402513884829,0.1853259280912014
1742916223.2577677,1.00162,0.009394,0.039894,-0.035,0.385,0.5425000000000001,-0.6015784858228588,-0.1163402513884829,0.1853259280912014
1742916223.2606087,1.001254,0.010248,0.041236,-0.08750000000000001,0.36750000000000005,0.5775,-0.6015784858228588,-0.1163402513884829,0.1853259280912014
1742916223.2654777,1.000766,0.009882,0.044164,0.0,0.14,0.47250000000000003,-0.6015784858228588,-0.1163402513884829,0.1806489330605086
1742916223.2703466,1.002352,0.008784,0.040138,0.0,0.0,0.36750000000000005,-0.5957322420344928,-0.12510961707103185,0.1806489330605086
1742916223.275215,1.000522,0.00915,0.035746,-0.0175,0.21000000000000002,0.6300000000000001,-0.5957322420344928,-0.12510961707103185,0.1806489330605086
1742916223.2800896,1.001132,0.013054,0.041724,-0.0175,0.07,0.56,-0.5957322420344928,-0.12510961707103185,0.1806489330605086
1742916223.2849538,1.00406,0.012688,0.038551999999999996,0.052500000000000005,0.0,0.525,-0.5957322420344928,-0.12510961707103185,0.1806489330605086
1742916223.2898185,1.002962,0.013542,0.035258,0.0,0.0175,0.56,-0.5957322420344928,-0.12510961707103185,0.1806489330605086
1742916223.2946868,1.002108,0.013663999999999999,0.038064,0.0175,0.07,0.5775,-0.5957322420344928,-0.12510961707103185,0.1806489330605086
1742916223.2995527,1.003938,0.015493999999999999,0.037454,0.08750000000000001,0.052500000000000005,0.56,-0.5957322420344928,-0.12510961707103185,0.1806489330605086
1742916223.3044193,1.00528,0.01647,0.037698,0.10500000000000001,0.035,0.56,-0.5957322420344928,-0.12510961707103185,0.1806489330605086
1742916223.3108544,1.007842,0.019764,0.034038,0.052500000000000005,0.12250000000000001,0.5775,-0.5957322420344928,-0.12510961707103185,0.1806489330605086
1742916223.3141572,1.005402,0.017324,0.036966,0.035,0.12250000000000001,0.5775,-0.6062554808535516,-0.12101724641917568,0.18766442560654778
1742916223.3190231,1.00406,0.01952,0.035136,-0.0175,-0.08750000000000001,0.21000000000000002,-0.6062554808535516,-0.12101724641917568,0.18766442560654778
1742916223.3238902,1.007232,0.021106,0.036112,0.08750000000000001,0.29750000000000004,0.6475000000000001,-0.6062554808535516,-0.12101724641917568,0.18766442560654778
1742916223.328759,1.0065,0.021471999999999998,0.034892,0.15750000000000003,0.31500000000000006,0.49000000000000005,-0.6062554808535516,-0.12101724641917568,0.18766442560654778
1742916223.333629,1.003938,0.020252,0.034648,0.08750000000000001,0.3325,0.525,-0.6062554808535516,-0.12101724641917568,0.18766442560654778
1742916223.338495,1.003084,0.020252,0.038551999999999996,0.10500000000000001,0.35000000000000003,0.5425000000000001,-0.6062554808535516,-0.12101724641917568,0.18766442560654778
1742916223.3433628,1.003328,0.021228,0.036478,0.14,0.35000000000000003,0.5950000000000001,-0.6062554808535516,-0.12101724641917568,0.18766442560654778
1742916223.348232,1.003206,0.019275999999999998,0.03904,0.052500000000000005,0.43750000000000006,0.5775,-0.6062554808535516,-0.12101724641917568,0.18766442560654778
1742916223.3531048,1.000888,0.016958,0.039162,0.12250000000000001,0.385,0.5425000000000001,-0.6062554808535516,-0.12101724641917568,0.18766442560654778
1742916223.3579698,1.001864,0.015982,0.04026,0.035,0.28,0.5425000000000001,-0.6062554808535516,-0.12101724641917568,0.18766442560654778
1742916223.363935,1.000278,0.017811999999999998,0.041236,0.12250000000000001,0.07,0.385,-0.6109324758842444,-0.12218649517684887,0.1873721134171295
1742916223.3677278,1.000278,0.01525,0.040138,-0.08750000000000001,0.29750000000000004,0.6300000000000001,-0.6109324758842444,-0.12218649517684887,0.1873721134171295
1742916223.3725982,1.002962,0.01281,0.041358,-0.12250000000000001,0.17500000000000002,0.56,-0.6109324758842444,-0.12218649517684887,0.1873721134171295
1742916223.3774536,1.002718,0.012444,0.039284,-0.08750000000000001,0.15750000000000003,0.5950000000000001,-0.6109324758842444,-0.12218649517684887,0.1873721134171295
1742916223.3823197,1.002962,0.008296,0.040626,0.0,0.052500000000000005,0.6300000000000001,-0.6109324758842444,-0.12218649517684887,0.1873721134171295
1742916223.3871856,1.00406,0.009271999999999999,0.04209,0.052500000000000005,0.08750000000000001,0.5775,-0.6109324758842444,-0.12218649517684887,0.1873721134171295
1742916223.3920588,1.00284,0.009637999999999999,0.039406,0.052500000000000005,0.0,0.5950000000000001,-0.6109324758842444,-0.12218649517684887,0.1873721134171295
1742916223.3969235,1.002596,0.009028,0.03904,0.052500000000000005,0.0,0.5775,-0.6109324758842444,-0.12218649517684887,0.1873721134171295
1742916223.4017906,1.002962,0.00793,0.035502,0.035,-0.0175,0.5950000000000001,-0.6109324758842444,-0.12218649517684887,0.1873721134171295
1742916223.4066563,1.004914,0.008539999999999999,0.036722,0.08750000000000001,0.052500000000000005,0.525,-0.6109324758842444,-0.13154048523823444,0.17684887459807075
1742916223.4115264,1.006622,0.01159,0.037332,0.10500000000000001,-0.14,0.29750000000000004,-0.6021631102016954,-0.13154048523823444,0.17684887459807075
1742916223.4170952,1.005036,0.011224,0.032818,0.08750000000000001,0.14,0.5950000000000001,-0.6021631102016954,-0.13154048523823444,0.17684887459807075
1742916223.421261,1.006744,0.012078,0.035868,0.035,0.21000000000000002,0.5775,-0.6021631102016954,-0.13154048523823444,0.17684887459807075
1742916223.4261284,1.004792,0.013908,0.03599,-0.0175,0.14,0.47250000000000003,-0.6021631102016954,-0.13154048523823444,0.17684887459807075
1742916223.4309957,1.006378,0.015006,0.03294,0.10500000000000001,0.24500000000000002,0.5425000000000001,-0.6021631102016954,-0.13154048523823444,0.17684887459807075
1742916223.4358635,1.006744,0.015127999999999999,0.035136,0.14,0.3325,0.56,-0.6021631102016954,-0.13154048523823444,0.17684887459807075
1742916223.4407332,1.004548,0.014761999999999999,0.0366,0.08750000000000001,0.31500000000000006,0.5075000000000001,-0.6021631102016954,-0.13154048523823444,0.17684887459807075
1742916223.4456015,1.00223,0.016104,0.03538,0.0175,0.3325,0.525,-0.6021631102016954,-0.13154048523823444,0.17684887459807075
1742916223.4504673,1.002718,0.018422,0.03782,0.10500000000000001,0.42000000000000004,0.525,-0.6021631102016954,-0.13154048523823444,0.17684887459807075
1742916223.4553344,1.00406,0.020618,0.040748,0.10500000000000001,0.3325,0.525,-0.608593978368898,-0.12627886582870507,0.1885413621748027
1742916223.4602041,1.00162,0.019886,0.039528,0.07,0.1925,0.6125,-0.608593978368898,-0.12627886582870507,0.1885413621748027
1742916223.465077,1.001864,0.019398,0.037698,0.14,0.29750000000000004,0.5425000000000001,-0.608593978368898,-0.12627886582870507,0.1885413621748027
1742916223.4706552,1.00223,0.021228,0.040382,0.0,0.24500000000000002,0.56,-0.608593978368898,-0.12627886582870507,0.1885413621748027
1742916223.4748094,1.00223,0.021228,0.040382,-0.10500000000000001,0.15750000000000003,0.5075000000000001,-0.608593978368898,-0.12627886582870507,0.1885413621748027
1742916223.4796748,1.000888,0.018178,0.040992,-0.052500000000000005,0.07,0.6125,-0.608593978368898,-0.12627886582870507,0.1885413621748027
1742916223.4845417,1.001376,0.019764,0.038551999999999996,-0.0175,0.052500000000000005,0.56,-0.608593978368898,-0.12627886582870507,0.1885413621748027
1742916223.489411,1.000888,0.019398,0.04026,-0.035,0.035,0.5775,-0.608593978368898,-0.12627886582870507,0.1885413621748027
1742916223.4942772,1.004548,0.016226,0.037942,-0.08750000000000001,0.0175,0.56,-0.608593978368898,-0.12627886582870507,0.1885413621748027
1742916223.499146,1.001498,0.013908,0.034282,-0.035,0.0,0.56,-0.608593978368898,-0.12627886582870507,0.1885413621748027
1742916223.5040147,1.006012,0.015127999999999999,0.037454,-0.12250000000000001,-0.15750000000000003,0.4025,-0.6004092370651856,-0.12978661210172465,0.188833674364221
1742916223.5088806,1.005036,0.013542,0.03782,-0.17500000000000002,0.0,0.665,-0.6004092370651856,-0.12978661210172465,0.188833674364221
1742916223.5137475,1.005646,0.013176,0.035258,-0.14,0.052500000000000005,0.5425000000000001,-0.6004092370651856,-0.12978661210172465,0.188833674364221
1742916223.5186167,1.003938,0.012688,0.034648,-0.035,0.07,0.5425000000000001,-0.6004092370651856,-0.12978661210172465,0.188833674364221
1742916223.5241852,1.006988,0.009271999999999999,0.031842,-0.14,0.12250000000000001,0.5775,-0.6004092370651856,-0.12978661210172465,0.188833674364221
1742916223.52835,1.00345,0.010003999999999999,0.034892,-0.10500000000000001,0.22750000000000004,0.6300000000000001,-0.6004092370651856,-0.12978661210172465,0.188833674364221
1742916223.533217,1.006134,0.01098,0.035623999999999996,-0.0175,0.17500000000000002,0.5775,-0.6004092370651856,-0.12978661210172465,0.188833674364221
1742916223.5380855,1.005158,0.010492,0.03477,-0.15750000000000003,0.2625,0.5950000000000001,-0.6004092370651856,-0.12978661210172465,0.188833674364221
1742916223.5429518,1.002962,0.010248,0.034648,-0.17500000000000002,0.4025,0.5775,-0.6004092370651856,-0.12978661210172465,0.188833674364221
1742916223.5478187,1.00467,0.008296,0.039406,-0.15750000000000003,0.4025,0.49000000000000005,-0.6009938614440222,-0.12394036831335867,0.1847413037123648
1742916223.5526884,1.002352,0.009516,0.038186,-0.10500000000000001,0.2625,0.35000000000000003,-0.6009938614440222,-0.12394036831335867,0.1847413037123648
1742916223.557555,1.000888,0.010858,0.037698,-0.10500000000000001,0.385,0.6125,-0.6009938614440222,-0.12394036831335867,0.1847413037123648
1742916223.5624228,1.002718,0.012565999999999999,0.036356,-0.035,0.42000000000000004,0.525,-0.6009938614440222,-0.12394036831335867,0.1847413037123648
1742916223.5672884,1.002352,0.011467999999999999,0.037698,-0.08750000000000001,0.4025,0.49000000000000005,-0.6009938614440222,-0.12394036831335867,0.1847413037123648
1742916223.5721602,1.001498,0.012322,0.03904,-0.07,0.385,0.5425000000000001,-0.6009938614440222,-0.12394036831335867,0.1847413037123648
1742916223.5777292,1.001742,0.01525,0.041479999999999996,-0.0175,0.28,0.5950000000000001,-0.6009938614440222,-0.12394036831335867,0.1847413037123648
1742916223.5818925,1.001498,0.019154,0.041602,4.4625,0.22750000000000004,0.525,-0.6009938614440222,-0.12394036831335867,0.1847413037123648
1742916223.5867593,1.000888,0.017568,0.040992,-0.07,0.17500000000000002,0.5425000000000001,-0.6009938614440222,-0.12394036831335867,0.1847413037123648
1742916223.5916266,1.000766,0.01769,0.038796,-0.035,0.12250000000000001,0.5425000000000001,-0.6009938614440222,-0.12394036831335867,0.1847413037123648
1742916223.5964937,1.00223,0.018056,0.039284,-0.035,0.0175,0.42000000000000004,-0.5974861151710026,-0.12627886582870507,0.188833674364221
1742916223.601362,1.003816,0.020252,0.039528,-0.052500000000000005,0.035,0.56,-0.5974861151710026,-0.12627886582870507,0.188833674364221
1742916223.6062276,1.002352,0.021228,0.0366,0.0,0.08750000000000001,0.56,-0.5974861151710026,-0.12627886582870507,0.188833674364221
1742916223.611096,1.00223,0.019764,0.037332,-0.0175,0.0,0.5425000000000001,-0.5974861151710026,-0.12627886582870507,0.188833674364221
1742916223.6159647,1.005036,0.018788,0.037454,-0.0175,0.052500000000000005,0.5425000000000001,-0.5974861151710026,-0.12627886582870507,0.188833674364221
1742916223.6208315,1.006378,0.021838,0.035258,0.0175,0.052500000000000005,0.56,-0.5974861151710026,-0.12627886582870507,0.188833674364221
1742916223.6257017,1.003328,0.0183,0.033549999999999996,0.0175,0.10500000000000001,0.56,-0.5974861151710026,-0.12627886582870507,0.188833674364221
1742916223.6312788,1.004548,0.016226,0.03477,-0.08750000000000001,0.15750000000000003,0.5775,-0.5974861151710026,-0.12627886582870507,0.188833674364221
1742916223.6354132,1.002962,0.014518,0.034282,-0.0175,0.21000000000000002,0.5950000000000001,-0.5974861151710026,-0.12627886582870507,0.188833674364221
1742916223.6402822,1.006256,0.016347999999999998,0.037576,-0.10500000000000001,0.1925,0.56,-0.5974861151710026,-0.12627886582870507,0.188833674364221
1742916223.645149,1.00528,0.015006,0.036478,-0.08750000000000001,0.14,0.4025,-0.608593978368898,-0.12744811458637825,0.19204910844782228
1742916223.650016,1.003694,0.012322,0.03782,-0.052500000000000005,0.29750000000000004,0.6125,-0.608593978368898,-0.12744811458637825,0.19204910844782228
1742916223.6548827,1.00406,0.011956,0.035868,-0.1925,0.42000000000000004,0.56,-0.608593978368898,-0.12744811458637825,0.19204910844782228
1742916223.6597502,1.001498,0.01098,0.039284,-0.15750000000000003,0.3325,0.5425000000000001,-0.608593978368898,-0.12744811458637825,0.19204910844782228
1742916223.6646185,1.004304,0.011101999999999999,0.04026,-0.15750000000000003,0.3325,0.5425000000000001,-0.608593978368898,-0.12744811458637825,0.19204910844782228
1742916223.6694853,1.002718,0.010735999999999999,0.039284,-0.17500000000000002,0.36750000000000005,0.525,-0.608593978368898,-0.12744811458637825,0.19204910844782228
1742916223.6743526,1.002718,0.010858,0.038308,-0.1925,0.3325,0.525,-0.608593978368898,-0.12744811458637825,0.19204910844782228
1742916223.6792214,1.00284,0.008662,0.038674,-0.17500000000000002,0.28,0.5775,-0.608593978368898,-0.12744811458637825,0.19204910844782228
1742916223.6847982,1.000766,0.010126,0.040992,-0.08750000000000001,0.1925,0.5950000000000001,-0.608593978368898,-0.12744811458637825,0.19204910844782228
1742916223.6889575,0.999424,0.009516,0.03904,-0.08750000000000001,0.1925,0.5950000000000001,-0.596901490792166,-0.12101724641917568,0.188833674364221
1742916223.6938233,1.000522,0.010735999999999999,0.039284,0.035,0.035,0.5425000000000001,-0.596901490792166,-0.12101724641917568,0.188833674364221
1742916223.6986895,1.002962,0.010003999999999999,0.036966,-0.08750000000000001,0.12250000000000001,0.5775,-0.596901490792166,-0.12101724641917568,0.188833674364221
1742916223.703557,1.003328,0.012199999999999999,0.038308,-0.0175,0.07,0.5775,-0.596901490792166,-0.12101724641917568,0.188833674364221
1742916223.7084255,1.00284,0.014395999999999999,0.037332,-0.035,0.12250000000000001,0.5950000000000001,-0.596901490792166,-0.12101724641917568,0.188833674364221
1742916223.7132943,1.00467,0.01586,0.038308,0.035,0.12250000000000001,0.5950000000000001,-0.596901490792166,-0.12101724641917568,0.188833674364221
1742916223.7181604,1.005158,0.016836,0.035623999999999996,0.035,0.08750000000000001,0.525,-0.596901490792166,-0.12101724641917568,0.188833674364221
1742916223.7230275,1.002596,0.016836,0.035136,-0.052500000000000005,0.12250000000000001,0.525,-0.596901490792166,-0.12101724641917568,0.188833674364221
1742916223.7278936,1.005524,0.019886,0.036478,0.0175,0.15750000000000003,0.5425000000000001,-0.596901490792166,-0.12101724641917568,0.188833674364221
1742916223.7327662,1.008208,0.018543999999999998,0.037698,0.035,0.22750000000000004,0.49000000000000005,-0.596901490792166,-0.12101724641917568,0.188833674364221
1742916223.7383487,1.006256,0.019764,0.032208,-0.052500000000000005,0.1925,0.385,-0.6062554808535516,-0.12686349020754165,0.19117217187956737
1742916223.7424989,1.005036,0.020739999999999998,0.035258,-0.0175,0.2625,0.5950000000000001,-0.6062554808535516,-0.12686349020754165,0.19117217187956737
1742916223.7473652,1.0065,0.020007999999999998,0.037576,0.07,0.4025,0.5775,-0.6062554808535516,-0.12686349020754165,0.19117217187956737
1742916223.7522333,1.00528,0.020252,0.03721,0.0,0.4025,0.5075000000000001,-0.6062554808535516,-0.12686349020754165,0.19117217187956737
1742916223.7571013,1.003572,0.019154,0.03599,0.07,0.385,0.5425000000000001,-0.6062554808535516,-0.12686349020754165,0.19117217187956737
1742916223.7619686,1.000278,0.016347999999999998,0.037576,0.0175,0.4025,0.5775,-0.6062554808535516,-0.12686349020754165,0.19117217187956737
1742916223.7668362,1.002352,0.017811999999999998,0.037576,0.0175,0.29750000000000004,0.56,-0.6062554808535516,-0.12686349020754165,0.19117217187956737
1742916223.7717063,1.004182,0.016958,0.038796,0.07,0.31500000000000006,0.5775,-0.6062554808535516,-0.12686349020754165,0.19117217187956737
1742916223.776592,1.001742,0.015127999999999999,0.038674,0.052500000000000005,0.28,0.525,-0.6062554808535516,-0.12686349020754165,0.19117217187956737
1742916223.7814457,1.000156,0.013176,0.037332,0.0175,0.1925,0.5075000000000001,-0.6062554808535516,-0.12686349020754165,0.19117217187956737
1742916223.7863226,1.004426,0.014029999999999999,0.039162,-0.14,0.15750000000000003,0.49000000000000005,-0.6015784858228588,-0.12920198772288805,0.1873721134171295
1742916223.79189,1.002596,0.013297999999999999,0.03843,0.0,0.07,0.5425000000000001,-0.6015784858228588,-0.12920198772288805,0.1873721134171295
1742916223.7960544,1.003938,0.011224,0.037698,0.07,0.24500000000000002,0.7175,-0.6015784858228588,-0.12920198772288805,0.1873721134171295
1742916223.800932,1.001132,0.011346,0.03721,-0.052500000000000005,0.035,0.525,-0.6015784858228588,-0.12920198772288805,0.1873721134171295
1742916223.8057914,1.004914,0.010369999999999999,0.038551999999999996,0.08750000000000001,0.0,0.6125,-0.6015784858228588,-0.12920198772288805,0.1873721134171295
1742916223.8106616,1.00467,0.010369999999999999,0.037942,0.0175,0.052500000000000005,0.5775,-0.6015784858228588,-0.12920198772288805,0.1873721134171295
1742916223.8155296,1.003084,0.008905999999999999,0.035868,0.035,0.08750000000000001,0.5425000000000001,-0.6015784858228588,-0.12920198772288805,0.1873721134171295
1742916223.8203948,1.005158,0.010614,0.037454,0.07,0.052500000000000005,0.5775,-0.6015784858228588,-0.12920198772288805,0.1873721134171295
1742916223.8252656,1.005646,0.01159,0.03599,0.12250000000000001,0.10500000000000001,0.5775,-0.6015784858228588,-0.12920198772288805,0.1873721134171295
1742916223.830132,1.004914,0.014152,0.034892,0.052500000000000005,0.12250000000000001,0.42000000000000004,-0.6062554808535516,-0.11458637825197311,0.1905875475007308
1742916223.8349988,1.004548,0.011346,0.03843,0.12250000000000001,0.08750000000000001,0.45500000000000007,-0.6062554808535516,-0.11458637825197311,0.1905875475007308
1742916223.8398702,1.0065,0.01586,0.036234,0.15750000000000003,0.28,0.5950000000000001,-0.6062554808535516,-0.11458637825197311,0.1905875475007308
1742916223.8454401,1.00589,0.016226,0.033306,0.07,0.2625,0.525,-0.6062554808535516,-0.11458637825197311,0.1905875475007308
1742916223.8496058,1.003938,0.015006,0.03294,-0.035,0.36750000000000005,0.5075000000000001,-0.6062554808535516,-0.11458637825197311,0.1905875475007308
1742916223.8544726,1.003328,0.016836,0.036234,0.0,0.36750000000000005,0.5075000000000001,-0.6062554808535516,-0.11458637825197311,0.1905875475007308
1742916223.8593373,1.003938,0.018422,0.038308,0.15750000000000003,0.4025,0.5075000000000001,-0.6062554808535516,-0.11458637825197311,0.1905875475007308
1742916223.8642068,1.001498,0.018056,0.038551999999999996,0.08750000000000001,0.36750000000000005,0.525,-0.6062554808535516,-0.11458637825197311,0.1905875475007308
1742916223.8690727,1.001132,0.017811999999999998,0.0366,0.08750000000000001,0.35000000000000003,0.49000000000000005,-0.6062554808535516,-0.11458637825197311,0.1905875475007308
1742916223.87394,1.002352,0.017811999999999998,0.040382,0.14,0.2625,0.5075000000000001,-0.6062554808535516,-0.11458637825197311,0.1905875475007308
1742916223.878807,1.002474,0.020007999999999998,0.039162,0.12250000000000001,0.22750000000000004,0.43750000000000006,-0.6021631102016954,-0.12744811458637825,0.1862028646594563
1742916223.8836741,1.002596,0.018788,0.042212,0.052500000000000005,0.14,0.43750000000000006,-0.6021631102016954,-0.12744811458637825,0.1862028646594563
1742916223.8885415,1.003328,0.018666,0.041236,0.0,0.31500000000000006,0.6475000000000001,-0.6021631102016954,-0.12744811458637825,0.1862028646594563
1742916223.8934128,1.0004,0.01769,0.038796,0.035,0.1925,0.56,-0.6021631102016954,-0.12744811458637825,0.1862028646594563
1742916223.898991,1.00162,0.01647,0.03904,-0.052500000000000005,0.12250000000000001,0.5775,-0.6021631102016954,-0.12744811458637825,0.1862028646594563
1742916223.9031441,1.00223,0.016958,0.04087,0.0,0.08750000000000001,0.6475000000000001,-0.6021631102016954,-0.12744811458637825,0.1862028646594563
1742916223.9080124,1.003572,0.015127999999999999,0.040992,-0.10500000000000001,0.0,0.5425000000000001,-0.6021631102016954,-0.12744811458637825,0.1862028646594563
1742916223.9128797,1.003694,0.014274,0.03721,-0.035,0.035,0.5950000000000001,-0.6021631102016954,-0.12744811458637825,0.1862028646594563
1742916223.9177465,1.004426,0.01342,0.035623999999999996,-0.07,0.08750000000000001,0.5775,-0.6021631102016954,-0.12744811458637825,0.1862028646594563
1742916223.9226131,1.004426,0.013908,0.03538,-0.08750000000000001,0.0175,0.5775,-0.6021631102016954,-0.12744811458637825,0.1862028646594563
1742916223.92748,1.0065,0.01281,0.038796,-0.052500000000000005,0.035,0.49000000000000005,-0.6004092370651856,-0.12978661210172465,0.18971061093247588
1742916223.932348,1.00711,0.011712,0.036722,-0.052500000000000005,0.21000000000000002,0.6475000000000001,-0.6004092370651856,-0.12978661210172465,0.18971061093247588
1742916223.9372187,1.001132,0.01159,0.033184,-0.14,0.1925,0.525,-0.6004092370651856,-0.12978661210172465,0.18971061093247588
1742916223.942088,1.00589,0.009516,0.036112,-0.15750000000000003,0.17500000000000002,0.5425000000000001,-0.6004092370651856,-0.12978661210172465,0.18971061093247588
1742916223.9469569,1.004182,0.010858,0.034159999999999996,-0.052500000000000005,0.29750000000000004,0.5425000000000001,-0.6004092370651856,-0.12978661210172465,0.18971061093247588
1742916223.952551,1.000278,0.010614,0.035013999999999997,-0.1925,0.28,0.5950000000000001,-0.6004092370651856,-0.12978661210172465,0.18971061093247588
1742916223.9566956,1.004548,0.010735999999999999,0.039162,-0.15750000000000003,0.29750000000000004,0.56,-0.6004092370651856,-0.12978661210172465,0.18971061093247588
1742916223.9615633,1.003084,0.010614,0.033916,-0.07,0.29750000000000004,0.56,-0.6004092370651856,-0.12978661210172465,0.18971061093247588
1742916223.9664295,1.003694,0.01281,0.037332,-0.15750000000000003,0.4025,0.525,-0.6004092370651856,-0.12978661210172465,0.18971061093247588
1742916223.9712975,1.004426,0.01342,0.03843,-0.17500000000000002,0.36750000000000005,0.47250000000000003,-0.608593978368898,-0.12277111955568547,0.19409529377375037
1742916223.9761658,1.000278,0.015006,0.03843,-0.15750000000000003,0.17500000000000002,0.43750000000000006,-0.608593978368898,-0.12277111955568547,0.19409529377375037
1742916223.981031,1.002596,0.015127999999999999,0.039284,-0.1925,0.36750000000000005,0.6475000000000001,-0.608593978368898,-0.12277111955568547,0.19409529377375037
1742916223.9859009,1.000644,0.015493999999999999,0.037332,-0.15750000000000003,0.29750000000000004,0.5425000000000001,-0.608593978368898,-0.12277111955568547,0.19409529377375037
1742916223.9907713,1.005158,0.018178,0.039284,-0.10500000000000001,0.22750000000000004,0.5075000000000001,-0.608593978368898,-0.12277111955568547,0.19409529377375037
1742916223.9956357,0.999302,0.0183,0.038551999999999996,-0.12250000000000001,0.2625,0.525,-0.608593978368898,-0.12277111955568547,0.19409529377375037
1742916224.000512,1.003694,0.016714,0.038064,-0.14,0.22750000000000004,0.5775,-0.608593978368898,-0.12277111955568547,0.19409529377375037
1742916224.006083,1.003206,0.019032,0.039528,-0.17500000000000002,0.12250000000000001,0.5075000000000001,-0.608593978368898,-0.12277111955568547,0.19409529377375037
1742916224.0102482,1.003816,0.018666,0.038308,-0.08750000000000001,0.15750000000000003,0.5775,-0.608593978368898,-0.12277111955568547,0.19409529377375037
1742916224.0151117,1.003572,0.017811999999999998,0.040138,0.052500000000000005,0.0175,0.47250000000000003,-0.608593978368898,-0.12277111955568547,0.19409529377375037
1742916224.0199814,1.005768,0.019886,0.036844,-0.14,0.052500000000000005,0.525,-0.6074247296112247,-0.12744811458637825,0.19292604501607716
1742916224.02485,1.004426,0.019154,0.036966,-0.1925,-0.15750000000000003,0.49000000000000005,-0.6074247296112247,-0.12744811458637825,0.19292604501607716
1742916224.0297155,1.00406,0.018056,0.036478,-0.22750000000000004,0.15750000000000003,0.6825000000000001,-0.6074247296112247,-0.12744811458637825,0.19292604501607716
1742916224.0345528,1.003816,0.018056,0.034038,-0.12250000000000001,0.052500000000000005,0.56,-0.6074247296112247,-0.12744811458637825,0.19292604501607716
1742916224.0394204,1.003694,0.016592,0.035868,-0.12250000000000001,0.14,0.5775,-0.6074247296112247,-0.12744811458637825,0.19292604501607716
1742916224.0442903,1.004914,0.017202,0.035258,0.035,0.14,0.5775,-0.6074247296112247,-0.12744811458637825,0.19292604501607716
1742916224.049158,1.005768,0.016592,0.035013999999999997,0.08750000000000001,0.12250000000000001,0.56,-0.6074247296112247,-0.12744811458637825,0.19292604501607716
1742916224.0540268,1.00589,0.014518,0.036112,0.035,0.21000000000000002,0.5425000000000001,-0.6074247296112247,-0.12744811458637825,0.19292604501607716
1742916224.0596404,1.003938,0.014395999999999999,0.038796,0.08750000000000001,0.31500000000000006,0.56,-0.6074247296112247,-0.12744811458637825,0.19292604501607716
1742916224.0637608,1.003938,0.014395999999999999,0.038796,0.035,0.24500000000000002,0.47250000000000003,-0.6074247296112247,-0.12744811458637825,0.19292604501607716
1742916224.0686443,1.00162,0.010492,0.0366,0.07,0.07,0.4025,-0.6021631102016954,-0.12277111955568547,0.18211049400760013
1742916224.0735111,1.003938,0.012565999999999999,0.036356,0.035,0.45500000000000007,0.6475000000000001,-0.6021631102016954,-0.12277111955568547,0.18211049400760013
1742916224.0783825,1.000156,0.010492,0.037332,0.0175,0.3325,0.5775,-0.6021631102016954,-0.12277111955568547,0.18211049400760013
1742916224.0832505,1.00223,0.012199999999999999,0.039284,0.0,0.36750000000000005,0.5075000000000001,-0.6021631102016954,-0.12277111955568547,0.18211049400760013
1742916224.0881212,1.000278,0.009882,0.03782,-0.0175,0.3325,0.525,-0.6021631102016954,-0.12277111955568547,0.18211049400760013
1742916224.092985,1.003572,0.009394,0.040382,0.0,0.24500000000000002,0.56,-0.6021631102016954,-0.12277111955568547,0.18211049400760013
1742916224.0978518,1.002718,0.01159,0.038186,0.052500000000000005,0.22750000000000004,0.5075000000000001,-0.6021631102016954,-0.12277111955568547,0.18211049400760013
1742916224.1027224,1.001742,0.011712,0.039284,0.10500000000000001,0.15750000000000003,0.5075000000000001,-0.6021631102016954,-0.12277111955568547,0.18211049400760013
1742916224.1075912,1.002474,0.013297999999999999,0.03904,0.08750000000000001,0.17500000000000002,0.5075000000000001,-0.6021631102016954,-0.12277111955568547,0.18211049400760013
1742916224.1190875,1.001376,0.01342,0.037942,0.10500000000000001,0.035,0.49000000000000005,-0.5957322420344928,-0.12978661210172465,0.1853259280912014
1742916224.1219487,1.003816,0.014274,0.03599,0.0,0.24500000000000002,0.7175,-0.5957322420344928,-0.12978661210172465,0.1853259280912014
1742916224.1268158,1.003694,0.016104,0.03782,0.052500000000000005,0.07,0.42000000000000004,-0.5957322420344928,-0.12978661210172465,0.1853259280912014
1742916224.1317124,1.003816,0.016104,0.036844,0.052500000000000005,0.052500000000000005,0.5425000000000001,-0.5957322420344928,-0.12978661210172465,0.1853259280912014
1742916224.1365626,1.003938,0.017568,0.034159999999999996,0.07,0.08750000000000001,0.5075000000000001,-0.5957322420344928,-0.12978661210172465,0.1853259280912014
1742916224.141426,1.004304,0.0183,0.03782,0.0,0.12250000000000001,0.5425000000000001,-0.5957322420344928,-0.12978661210172465,0.1853259280912014
1742916224.1462927,1.003694,0.018543999999999998,0.035746,0.0,0.08750000000000001,0.525,-0.5957322420344928,-0.12978661210172465,0.1853259280912014
1742916224.1511595,1.006134,0.020984,0.03721,0.052500000000000005,0.21000000000000002,0.56,-0.5957322420344928,-0.12978661210172465,0.1853259280912014
1742916224.1560278,1.003938,0.019886,0.035746,0.07,0.21000000000000002,0.56,-0.5957322420344928,-0.12978661210172465,0.1853259280912014
1742916224.1608956,1.002962,0.02013,0.0366,0.0175,0.29750000000000004,0.49000000000000005,-0.5974861151710026,-0.13154048523823444,0.1864951768488746
1742916224.1657631,1.002718,0.016958,0.03721,-0.035,0.12250000000000001,0.4025,-0.5974861151710026,-0.13154048523823444,0.1864951768488746
1742916224.1735723,1.004792,0.017934,0.0366,-0.0175,0.31500000000000006,0.5775,-0.5974861151710026,-0.13154048523823444,0.1864951768488746
1742916224.176407,1.003084,0.017202,0.037332,-0.07,0.385,0.6300000000000001,-0.5974861151710026,-0.13154048523823444,0.1864951768488746
1742916224.1812751,1.004304,0.014029999999999999,0.03721,-0.07,0.28,0.49000000000000005,-0.5974861151710026,-0.13154048523823444,0.1864951768488746
1742916224.1861417,1.002718,0.015982,0.04026,-0.14,0.36750000000000005,0.56,-0.5974861151710026,-0.13154048523823444,0.1864951768488746
1742916224.1910129,1.002718,0.012444,0.043676,-0.08750000000000001,0.29750000000000004,0.56,-0.5974861151710026,-0.13154048523823444,0.1864951768488746
1742916224.1958807,1.0004,0.012444,0.038551999999999996,-0.07,0.21000000000000002,0.56,-0.5974861151710026,-0.13154048523823444,0.1864951768488746
1742916224.200747,1.00223,0.01281,0.041236,-0.12250000000000001,0.22750000000000004,0.5425000000000001,-0.5974861151710026,-0.13154048523823444,0.1864951768488746
1742916224.2056148,1.003328,0.011224,0.041358,-0.12250000000000001,0.22750000000000004,0.5775,-0.5974861151710026,-0.13154048523823444,0.19351066939491376
1742916224.210481,1.003084,0.01281,0.038551999999999996,-0.0175,0.0,0.4025,-0.6103478515054078,-0.12686349020754165,0.19351066939491376
1742916224.2153485,1.003084,0.013786,0.03843,-0.08750000000000001,0.1925,0.7000000000000001,-0.6103478515054078,-0.12686349020754165,0.19351066939491376
1742916224.220275,1.003328,0.011467999999999999,0.036844,-0.10500000000000001,0.17500000000000002,0.5425000000000001,-0.6103478515054078,-0.12686349020754165,0.19351066939491376
1742916224.2276065,1.002718,0.009637999999999999,0.037576,0.0175,0.10500000000000001,0.6125,-0.6103478515054078,-0.12686349020754165,0.19351066939491376
1742916224.2305567,1.003328,0.008905999999999999,0.037576,0.0175,0.10500000000000001,0.6125,-0.6103478515054078,-0.12686349020754165,0.19351066939491376
1742916224.23542,1.002962,0.01098,0.035623999999999996,0.052500000000000005,0.052500000000000005,0.45500000000000007,-0.6103478515054078,-0.12686349020754165,0.19351066939491376
1742916224.2402906,1.004792,0.010858,0.036722,0.035,0.15750000000000003,0.5950000000000001,-0.6103478515054078,-0.12686349020754165,0.19351066939491376
1742916224.2451582,1.00467,0.013786,0.035258,-0.07,0.15750000000000003,0.5775,-0.6103478515054078,-0.12686349020754165,0.19351066939491376
1742916224.250024,1.006988,0.013908,0.035136,-0.08750000000000001,0.10500000000000001,0.525,-0.6103478515054078,-0.12686349020754165,0.19351066939491376
1742916224.2548902,1.006866,0.015372,0.036722,-0.10500000000000001,0.07,0.36750000000000005,-0.5974861151710026,-0.12277111955568547,0.1862028646594563
1742916224.2597573,1.003694,0.016226,0.03782,-0.12250000000000001,0.29750000000000004,0.6475000000000001,-0.5974861151710026,-0.12277111955568547,0.1862028646594563
1742916224.2646253,1.004548,0.015127999999999999,0.035502,-0.10500000000000001,0.28,0.5425000000000001,-0.5974861151710026,-0.12277111955568547,0.1862028646594563
1742916224.2694921,1.003694,0.017202,0.034648,-0.12250000000000001,0.36750000000000005,0.5425000000000001,-0.5974861151710026,-0.12277111955568547,0.1862028646594563
1742916224.274363,1.002352,0.018666,0.039528,-0.17500000000000002,0.35000000000000003,0.525,-0.5974861151710026,-0.12277111955568547,0.1862028646594563
1742916224.2807288,1.003816,0.019154,0.036234,-0.10500000000000001,0.36750000000000005,0.525,-0.5974861151710026,-0.12277111955568547,0.1862028646594563
1742916224.2840965,1.003694,0.020862,0.037454,-0.052500000000000005,0.35000000000000003,0.5425000000000001,-0.5974861151710026,-0.12277111955568547,0.1862028646594563
1742916224.2889645,1.001864,0.018666,0.038308,-0.052500000000000005,0.29750000000000004,0.56,-0.5974861151710026,-0.12277111955568547,0.1862028646594563
1742916224.2938325,1.004304,0.018178,0.041236,-0.14,0.3325,0.5775,-0.5974861151710026,-0.12277111955568547,0.1862028646594563
1742916224.2986987,1.00223,0.019032,0.03904,-0.08750000000000001,0.24500000000000002,0.5075000000000001,-0.5974861151710026,-0.12277111955568547,0.1862028646594563
1742916224.3035676,1.00162,0.020252,0.041724,-0.0175,0.052500000000000005,0.4025,-0.596901490792166,-0.12335574393452207,0.18211049400760013
1742916224.308434,1.00223,0.01586,0.03782,-0.0175,0.21000000000000002,0.6825000000000001,-0.596901490792166,-0.12335574393452207,0.18211049400760013
1742916224.3133008,1.001254,0.015616,0.040504,-0.08750000000000001,0.14,0.56,-0.596901490792166,-0.12335574393452207,0.18211049400760013
1742916224.3181674,1.003084,0.012444,0.040382,-0.052500000000000005,0.15750000000000003,0.5425000000000001,-0.596901490792166,-0.12335574393452207,0.18211049400760013
1742916224.323034,1.00406,0.014152,0.040748,-0.08750000000000001,0.10500000000000001,0.56,-0.596901490792166,-0.12335574393452207,0.18211049400760013
1742916224.327915,1.004182,0.013908,0.0366,-0.10500000000000001,0.12250000000000001,0.56,-0.596901490792166,-0.12335574393452207,0.18211049400760013
1742916224.333806,1.003694,0.014029999999999999,0.034892,-0.052500000000000005,0.0,0.56,-0.596901490792166,-0.12335574393452207,0.18211049400760013
1742916224.3376393,1.004426,0.012565999999999999,0.036112,0.0,0.15750000000000003,0.5950000000000001,-0.596901490792166,-0.12335574393452207,0.18211049400760013
1742916224.342508,1.005768,0.014274,0.035258,-0.15750000000000003,0.07,0.49000000000000005,-0.596901490792166,-0.12335574393452207,0.18211049400760013
1742916224.3473744,1.005036,0.00976,0.035258,-0.07,0.12250000000000001,0.56,-0.5939783688979831,-0.1163402513884829,0.19321835720549546
1742916224.3522425,1.002962,0.011467999999999999,0.033306,-0.10500000000000001,0.0175,0.385,-0.5939783688979831,-0.1163402513884829,0.19321835720549546
1742916224.3571122,1.006134,0.010248,0.034526,-0.0175,0.24500000000000002,0.665,-0.5939783688979831,-0.1163402513884829,0.19321835720549546
1742916224.3619773,1.007964,0.011712,0.036356,-0.0175,0.24500000000000002,0.56,-0.5939783688979831,-0.1163402513884829,0.19321835720549546
1742916224.3668447,1.006988,0.010735999999999999,0.035258,0.0,0.29750000000000004,0.525,-0.5939783688979831,-0.1163402513884829,0.19321835720549546
1742916224.3717127,1.002718,0.00976,0.035013999999999997,0.0175,0.31500000000000006,0.49000000000000005,-0.5939783688979831,-0.1163402513884829,0.19321835720549546
1742916224.3765788,1.004182,0.011833999999999999,0.037698,0.0175,0.36750000000000005,0.5075000000000001,-0.5939783688979831,-0.1163402513884829,0.19321835720549546
1742916224.3814497,1.00528,0.012322,0.038674,0.10500000000000001,0.36750000000000005,0.525,-0.5939783688979831,-0.1163402513884829,0.19321835720549546
1742916224.3870273,1.006134,0.016347999999999998,0.036234,0.12250000000000001,0.35000000000000003,0.5075000000000001,-0.5939783688979831,-0.1163402513884829,0.19321835720549546
1742916224.3911831,1.006134,0.016347999999999998,0.037332,-0.0175,0.31500000000000006,0.45500000000000007,-0.5939783688979831,-0.1163402513884829,0.19321835720549546
1742916224.3960507,1.00162,0.016347999999999998,0.040015999999999996,-0.0175,0.24500000000000002,0.36750000000000005,-0.5992399883075125,-0.12218649517684887,0.188833674364221
1742916224.4009182,1.003938,0.015493999999999999,0.037087999999999996,0.052500000000000005,0.17500000000000002,0.6475000000000001,-0.5992399883075125,-0.12218649517684887,0.188833674364221
1742916224.4057846,1.003694,0.018056,0.04392,0.10500000000000001,0.31500000000000006,0.5950000000000001,-0.5992399883075125,-0.12218649517684887,0.188833674364221
1742916224.4106503,1.001376,0.015738,0.034159999999999996,0.08750000000000001,0.15750000000000003,0.56,-0.5992399883075125,-0.12218649517684887,0.188833674364221
1742916224.415518,1.000766,0.016592,0.045506,0.14,0.17500000000000002,0.5425000000000001,-0.5992399883075125,-0.12218649517684887,0.188833674364221
1742916224.4203866,1.00162,0.018056,0.031598,0.052500000000000005,0.07,0.56,-0.5992399883075125,-0.12218649517684887,0.188833674364221
1742916224.4252532,1.00345,0.019642,0.042334,0.08750000000000001,0.08750000000000001,0.5775,-0.5992399883075125,-0.12218649517684887,0.188833674364221
1742916224.4301236,1.004548,0.020862,0.037454,0.07,0.07,0.5775,-0.5992399883075125,-0.12218649517684887,0.188833674364221
1742916224.4349911,1.003572,0.016592,0.0366,0.0,0.0,0.525,-0.5992399883075125,-0.12218649517684887,0.188833674364221
1742916224.440559,1.003572,0.015616,0.035868,0.0175,-0.0175,0.56,-0.5992399883075125,-0.12218649517684887,0.188833674364221
1742916224.444725,1.003694,0.017079999999999998,0.032818,-0.035,0.052500000000000005,0.49000000000000005,-0.5910552470038001,-0.12452499269219526,0.1905875475007308
1742916224.4495907,1.004304,0.017934,0.038551999999999996,0.0175,0.10500000000000001,0.6125,-0.5910552470038001,-0.12452499269219526,0.1905875475007308
1742916224.454459,1.006012,0.016958,0.036356,0.0175,0.2625,0.6300000000000001,-0.5910552470038001,-0.12452499269219526,0.1905875475007308
1742916224.4593248,1.00589,0.014518,0.03477,0.0,0.15750000000000003,0.5950000000000001,-0.5910552470038001,-0.12452499269219526,0.1905875475007308
1742916224.4641936,1.005646,0.015127999999999999,0.035868,-0.052500000000000005,0.1925,0.56,-0.5910552470038001,-0.12452499269219526,0.1905875475007308
1742916224.4690623,1.006134,0.014029999999999999,0.036966,-0.052500000000000005,0.17500000000000002,0.56,-0.5910552470038001,-0.12452499269219526,0.1905875475007308
1742916224.473927,1.005402,0.013542,0.037087999999999996,-0.07,0.24500000000000002,0.5425000000000001,-0.5910552470038001,-0.12452499269219526,0.1905875475007308
1742916224.4787948,1.002718,0.011956,0.035136,-0.14,0.28,0.56,-0.5910552470038001,-0.12452499269219526,0.1905875475007308
1742916224.4836614,1.003206,0.011833999999999999,0.035746,-0.12250000000000001,0.29750000000000004,0.49000000000000005,-0.5910552470038001,-0.12452499269219526,0.1905875475007308
1742916224.488533,1.003084,0.011956,0.033916,-0.12250000000000001,0.1925,0.4025,-0.6021631102016954,-0.12803273896521486,0.19000292312189418
1742916224.4941025,1.004304,0.012199999999999999,0.03965,-0.052500000000000005,0.28,0.5775,-0.6021631102016954,-0.12803273896521486,0.19000292312189418
1742916224.4982657,1.004304,0.012199999999999999,0.03965,0.035,0.36750000000000005,0.5425000000000001,-0.6021631102016954,-0.12803273896521486,0.19000292312189418
1742916224.5031326,1.001132,0.013176,0.03904,-0.08750000000000001,0.2625,0.5425000000000001,-0.6021631102016954,-0.12803273896521486,0.19000292312189418
1742916224.5080006,1.000888,0.009637999999999999,0.040748,-0.1925,0.31500000000000006,0.56,-0.6021631102016954,-0.12803273896521486,0.19000292312189418
1742916224.5128686,1.001254,0.012565999999999999,0.040748,-0.08750000000000001,0.29750000000000004,0.5775,-0.6021631102016954,-0.12803273896521486,0.19000292312189418
1742916224.517737,1.001498,0.014274,0.03843,-0.10500000000000001,0.22750000000000004,0.5425000000000001,-0.6021631102016954,-0.12803273896521486,0.19000292312189418
1742916224.5226033,1.003694,0.013542,0.040138,-0.08750000000000001,0.12250000000000001,0.5075000000000001,-0.6021631102016954,-0.12803273896521486,0.19000292312189418
1742916224.5274687,1.002108,0.012199999999999999,0.035502,-0.12250000000000001,0.15750000000000003,0.5425000000000001,-0.6021631102016954,-0.12803273896521486,0.19000292312189418
1742916224.5323486,1.002718,0.015493999999999999,0.037576,-0.07,0.15750000000000003,0.5775,-0.6021631102016954,-0.12803273896521486,0.19000292312189418
1742916224.537209,1.003084,0.016958,0.03904,-0.12250000000000001,0.052500000000000005,0.42000000000000004,-0.605670856474715,-0.12394036831335867,0.19204910844782228
1742916224.5420783,1.004182,0.014884,0.034038,-0.17500000000000002,0.052500000000000005,0.5775,-0.605670856474715,-0.12394036831335867,0.19204910844782228
1742916224.5476744,1.00284,0.015982,0.039894,-0.10500000000000001,0.2625,0.6475000000000001,-0.605670856474715,-0.12394036831335867,0.19204910844782228
1742916224.5518124,1.00528,0.017324,0.033062,-0.035,0.17500000000000002,0.5775,-0.605670856474715,-0.12394036831335867,0.19204910844782228
1742916224.556677,1.00162,0.018422,0.036234,-0.07,0.08750000000000001,0.5075000000000001,-0.605670856474715,-0.12394036831335867,0.19204910844782228
1742916224.561547,1.00406,0.01769,0.033672,-0.12250000000000001,0.14,0.5425000000000001,-0.605670856474715,-0.12394036831335867,0.19204910844782228
1742916224.566415,1.004792,0.016958,0.038186,-0.0175,0.1925,0.56,-0.605670856474715,-0.12394036831335867,0.19204910844782228
1742916224.5712788,1.006378,0.019642,0.035746,0.0,0.2625,0.5425000000000001,-0.605670856474715,-0.12394036831335867,0.19204910844782228
1742916224.576149,1.005158,0.018543999999999998,0.039284,-0.0175,0.24500000000000002,0.525,-0.605670856474715,-0.12394036831335867,0.19204910844782228
1742916224.5810165,1.004792,0.018056,0.035258,-0.052500000000000005,0.3325,0.5425000000000001,-0.605670856474715,-0.12394036831335867,0.19204910844782228
1742916224.5858822,1.002474,0.017446,0.03843,-0.0175,0.24500000000000002,0.43750000000000006,-0.6039169833382052,-0.12277111955568547,0.18941829874305757
1742916224.5907493,1.002596,0.016347999999999998,0.038064,0.07,0.29750000000000004,0.5425000000000001,-0.6039169833382052,-0.12277111955568547,0.18941829874305757
1742916224.5956218,1.00406,0.01586,0.040748,0.0175,0.36750000000000005,0.6300000000000001,-0.6039169833382052,-0.12277111955568547,0.18941829874305757
1742916224.601189,1.004426,0.014274,0.037087999999999996,-0.035,0.35000000000000003,0.56,-0.6039169833382052,-0.12277111955568547,0.18941829874305757
1742916224.605355,1.003084,0.013663999999999999,0.038308,-0.035,0.28,0.47250000000000003,-0.6039169833382052,-0.12277111955568547,0.18941829874305757
1742916224.61022,1.002718,0.01342,0.036234,0.052500000000000005,0.2625,0.56,-0.6039169833382052,-0.12277111955568547,0.18941829874305757
1742916224.6150873,1.003328,0.011712,0.039528,0.08750000000000001,0.15750000000000003,0.56,-0.6039169833382052,-0.12277111955568547,0.18941829874305757
1742916224.6199698,1.003572,0.012565999999999999,0.04026,0.10500000000000001,0.14,0.5950000000000001,-0.6039169833382052,-0.12277111955568547,0.18941829874305757
1742916224.6248336,1.004548,0.013297999999999999,0.0366,0.052500000000000005,0.12250000000000001,0.5425000000000001,-0.6039169833382052,-0.12277111955568547,0.18941829874305757
1742916224.629698,1.002474,0.010369999999999999,0.040504,0.035,0.12250000000000001,0.49000000000000005,-0.6062554808535516,-0.12686349020754165,0.185910552470038
1742916224.6345413,1.00406,0.010614,0.03477,0.12250000000000001,0.0,0.5075000000000001,-0.6062554808535516,-0.12686349020754165,0.185910552470038
1742916224.6394093,1.002962,0.012078,0.040138,-0.035,0.2625,0.6475000000000001,-0.6062554808535516,-0.12686349020754165,0.185910552470038
1742916224.6442783,1.003328,0.011467999999999999,0.029523999999999998,-0.15750000000000003,0.08750000000000001,0.56,-0.6062554808535516,-0.12686349020754165,0.185910552470038
1742916224.649149,1.003206,0.01342,0.045994,-0.08750000000000001,0.24500000000000002,0.5075000000000001,-0.6062554808535516,-0.12686349020754165,0.185910552470038
1742916224.6547172,1.005158,0.01525,0.030622,-0.15750000000000003,0.1925,0.56,-0.6062554808535516,-0.12686349020754165,0.185910552470038
1742916224.6588805,1.003206,0.014274,0.043554,0.0175,0.22750000000000004,0.525,-0.6062554808535516,-0.12686349020754165,0.185910552470038
1742916224.6637478,1.00162,0.014274,0.02745,-0.0175,0.10500000000000001,0.5075000000000001,-0.6062554808535516,-0.12686349020754165,0.185910552470038
1742916224.6686156,1.00406,0.01647,0.048434,-0.14,0.2625,0.525,-0.6062554808535516,-0.12686349020754165,0.185910552470038
1742916224.6734836,1.004548,0.016104,0.027816,-0.1925,0.22750000000000004,0.49000000000000005,-0.6062554808535516,-0.12686349020754165,0.185910552470038
1742916224.6783504,1.003694,0.018788,0.046238,-0.15750000000000003,0.2625,0.45500000000000007,-0.5992399883075125,-0.12452499269219526,0.1809412452499269
1742916224.683218,1.004182,0.017079999999999998,0.029036,-0.14,0.21000000000000002,0.49000000000000005,-0.5992399883075125,-0.12452499269219526,0.1809412452499269
1742916224.6880844,1.002108,0.016836,0.044042,-0.12250000000000001,0.42000000000000004,0.6475000000000001,-0.5992399883075125,-0.12452499269219526,0.1809412452499269
1742916224.6929545,1.002962,0.018056,0.036356,-0.10500000000000001,0.36750000000000005,0.49000000000000005,-0.5992399883075125,-0.12452499269219526,0.1809412452499269
1742916224.697819,1.003084,0.017079999999999998,0.041846,-0.08750000000000001,0.24500000000000002,0.5425000000000001,-0.5992399883075125,-0.12452499269219526,0.1809412452499269
1742916224.70269,1.003328,0.01769,0.033306,-0.08750000000000001,0.29750000000000004,0.5425000000000001,-0.5992399883075125,-0.12452499269219526,0.1809412452499269
1742916224.708256,1.003328,0.016836,0.040015999999999996,0.0175,0.3325,0.56,-0.5992399883075125,-0.12452499269219526,0.1809412452499269
1742916224.712423,1.001986,0.01647,0.035136,0.0175,0.3325,0.56,-0.5992399883075125,-0.12452499269219526,0.1809412452499269
1742916224.7172914,1.001132,0.01586,0.038796,-0.08750000000000001,0.14,0.49000000000000005,-0.5992399883075125,-0.12452499269219526,0.1809412452499269
1742916224.722157,1.004426,0.016104,0.037942,-0.0175,0.21000000000000002,0.47250000000000003,-0.5992399883075125,-0.12452499269219526,0.1809412452499269
1742916224.727024,1.000644,0.01464,0.03843,-4.48,0.07,0.45500000000000007,-0.6009938614440222,-0.11926337328266588,0.182987430575855
1742916224.7318897,1.000034,0.014395999999999999,0.037332,0.0175,0.17500000000000002,0.6300000000000001,-0.6009938614440222,-0.11926337328266588,0.182987430575855
1742916224.7367578,1.002596,0.013908,0.040626,0.0175,0.12250000000000001,0.56,-0.6009938614440222,-0.11926337328266588,0.182987430575855
1742916224.7416253,1.004304,0.013297999999999999,0.038186,0.035,0.08750000000000001,0.5775,-0.6009938614440222,-0.11926337328266588,0.182987430575855
1742916224.746493,1.00467,0.014152,0.037332,0.12250000000000001,0.052500000000000005,0.5425000000000001,-0.6009938614440222,-0.11926337328266588,0.182987430575855
1742916224.7513595,1.004182,0.011346,0.035746,0.12250000000000001,0.08750000000000001,0.5775,-0.6009938614440222,-0.11926337328266588,0.182987430575855
1742916224.7562306,1.003206,0.011346,0.035868,0.08750000000000001,0.10500000000000001,0.525,-0.6009938614440222,-0.11926337328266588,0.182987430575855
1742916224.7617981,1.006134,0.011833999999999999,0.036234,0.035,0.12250000000000001,0.5775,-0.6009938614440222,-0.11926337328266588,0.182987430575855
1742916224.765967,1.004548,0.01159,0.037454,-0.08750000000000001,0.1925,0.5425000000000001,-0.6009938614440222,-0.11926337328266588,0.182987430575855
1742916224.770831,1.00284,0.013542,0.035746,-0.0175,0.10500000000000001,0.47250000000000003,-0.6050862320958784,-0.12394036831335867,0.18123355743934522
1742916224.775699,1.005524,0.01281,0.035013999999999997,0.12250000000000001,0.10500000000000001,0.42000000000000004,-0.6050862320958784,-0.12394036831335867,0.18123355743934522
1742916224.7805903,1.005036,0.012931999999999999,0.034038,0.12250000000000001,0.31500000000000006,0.5775,-0.6050862320958784,-0.12394036831335867,0.18123355743934522
1742916224.785443,1.004792,0.01342,0.036112,0.07,0.1925,0.43750000000000006,-0.6050862320958784,-0.12394036831335867,0.18123355743934522
1742916224.7903214,1.004548,0.014274,0.035502,-0.0175,0.22750000000000004,0.5775,-0.6050862320958784,-0.12394036831335867,0.18123355743934522
1742916224.7951834,1.00406,0.012322,0.037942,0.035,0.31500000000000006,0.47250000000000003,-0.6050862320958784,-0.12394036831335867,0.18123355743934522
1742916224.80005,1.003694,0.01525,0.036234,0.0,0.31500000000000006,0.5425000000000001,-0.6050862320958784,-0.12394036831335867,0.18123355743934522
1742916224.804921,1.00528,0.01586,0.039772,0.052500000000000005,0.31500000000000006,0.49000000000000005,-0.6050862320958784,-0.12394036831335867,0.18123355743934522
1742916224.8097885,1.003572,0.01647,0.039162,0.052500000000000005,0.2625,0.49000000000000005,-0.6050862320958784,-0.12394036831335867,0.18123355743934522
1742916224.815358,1.002352,0.017079999999999998,0.039772,0.035,0.22750000000000004,0.525,-0.6050862320958784,-0.12394036831335867,0.18123355743934522
1742916224.8195264,1.00345,0.017811999999999998,0.039284,0.07,0.28,0.5425000000000001,-0.6103478515054078,-0.12510961707103185,0.1826951183864367
1742916224.8243904,1.004426,0.017079999999999998,0.040382,-0.07,0.0175,0.36750000000000005,-0.6103478515054078,-0.12510961707103185,0.1826951183864367
1742916224.8292608,1.00284,0.017446,0.037698,0.0,0.3325,0.7350000000000001,-0.6103478515054078,-0.12510961707103185,0.1826951183864367
1742916224.8341255,1.001864,0.018422,0.040015999999999996,0.08750000000000001,0.21000000000000002,0.5950000000000001,-0.6103478515054078,-0.12510961707103185,0.1826951183864367
1742916224.8389895,1.002596,0.017568,0.036722,0.07,0.15750000000000003,0.5775,-0.6103478515054078,-0.12510961707103185,0.1826951183864367
1742916224.843859,1.001864,0.019886,0.039284,4.4625,0.07,0.5775,-0.6103478515054078,-0.12510961707103185,0.1826951183864367
1742916224.8487275,1.002108,0.0183,0.039772,0.035,0.14,0.56,-0.6103478515054078,-0.12510961707103185,0.1826951183864367
1742916224.853594,1.00284,0.017568,0.037698,0.052500000000000005,0.10500000000000001,0.525,-0.6103478515054078,-0.12510961707103185,0.1826951183864367
1742916224.8584633,1.003816,0.016836,0.037942,0.052500000000000005,0.12250000000000001,0.56,-0.6103478515054078,-0.12510961707103185,0.1826951183864367
1742916224.8633325,1.005524,0.013786,0.036478,0.052500000000000005,0.17500000000000002,0.5775,-0.6103478515054078,-0.12510961707103185,0.1826951183864367
1742916224.868913,1.00284,0.012322,0.036844,-0.052500000000000005,0.0175,0.47250000000000003,-0.6103478515054078,-0.12627886582870507,0.1806489330605086
1742916224.8730662,1.004304,0.01525,0.036844,-0.14,0.28,0.7000000000000001,-0.6103478515054078,-0.12627886582870507,0.1806489330605086
1742916224.8779314,1.005768,0.01525,0.03599,0.0175,0.17500000000000002,0.5775,-0.6103478515054078,-0.12627886582870507,0.1806489330605086
1742916224.882799,1.00467,0.012322,0.036844,0.0,0.15750000000000003,0.5425000000000001,-0.6103478515054078,-0.12627886582870507,0.1806489330605086
1742916224.8876667,1.003816,0.012199999999999999,0.036722,-0.052500000000000005,0.22750000000000004,0.525,-0.6103478515054078,-0.12627886582870507,0.1806489330605086
1742916224.8925347,1.005768,0.012444,0.034526,-0.07,0.31500000000000006,0.56,-0.6103478515054078,-0.12627886582870507,0.1806489330605086
1742916224.8974025,1.00284,0.012565999999999999,0.03843,-0.10500000000000001,0.36750000000000005,0.525,-0.6103478515054078,-0.12627886582870507,0.1806489330605086
1742916224.9022686,1.004426,0.011712,0.039772,-0.12250000000000001,0.35000000000000003,0.5775,-0.6103478515054078,-0.12627886582870507,0.1806489330605086
1742916224.9071357,1.001742,0.012688,0.038551999999999996,-0.10500000000000001,0.29750000000000004,0.5775,-0.6103478515054078,-0.12627886582870507,0.1806489330605086
1742916224.9120026,1.002108,0.012931999999999999,0.037698,-0.07,0.29750000000000004,0.525,-0.6021631102016954,-0.13095586085939784,0.1809412452499269
1742916224.9168742,1.00162,0.011956,0.038308,-0.12250000000000001,0.14,0.35000000000000003,-0.6021631102016954,-0.13095586085939784,0.1809412452499269
1742916224.922443,1.004548,0.012931999999999999,0.038064,-0.12250000000000001,0.35000000000000003,0.665,-0.6021631102016954,-0.13095586085939784,0.1809412452499269
1742916224.9266052,1.004548,0.013908,0.041479999999999996,-0.07,0.2625,0.5775,-0.6021631102016954,-0.13095586085939784,0.1809412452499269
1742916224.9314718,1.001864,0.015372,0.037087999999999996,0.07,0.14,0.47250000000000003,-0.6021631102016954,-0.13095586085939784,0.1809412452499269
1742916224.9363418,1.003206,0.014518,0.03721,-0.12250000000000001,0.15750000000000003,0.5425000000000001,-0.6021631102016954,-0.13095586085939784,0.1809412452499269
1742916224.9412084,1.002962,0.014518,0.03904,-0.10500000000000001,0.14,0.5425000000000001,-0.6021631102016954,-0.13095586085939784,0.1809412452499269
1742916224.946076,1.003084,0.015616,0.039772,-0.07,0.14,0.56,-0.6021631102016954,-0.13095586085939784,0.1809412452499269
1742916224.9509425,1.003328,0.017202,0.037332,-0.035,0.15750000000000003,0.5425000000000001,-0.6021631102016954,-0.13095586085939784,0.1809412452499269
1742916224.9558117,1.005036,0.017811999999999998,0.036356,0.035,0.08750000000000001,0.49000000000000005,-0.6021631102016954,-0.13095586085939784,0.1809412452499269
1742916224.960679,1.003816,0.016104,0.037087999999999996,-0.07,-0.035,0.35000000000000003,-0.6080093539900614,-0.12686349020754165,0.1844489915229465
1742916224.9655461,1.00406,0.015738,0.036966,-0.08750000000000001,0.29750000000000004,0.7000000000000001,-0.6080093539900614,-0.12686349020754165,0.1844489915229465
1742916224.9704182,1.002352,0.019886,0.03721,-0.10500000000000001,0.22750000000000004,0.56,-0.6080093539900614,-0.12686349020754165,0.1844489915229465
1742916224.9759972,1.00284,0.017202,0.03721,-0.0175,0.24500000000000002,0.525,-0.6080093539900614,-0.12686349020754165,0.1844489915229465
1742916224.9801579,1.00284,0.016347999999999998,0.035136,-0.052500000000000005,0.21000000000000002,0.5425000000000001,-0.6080093539900614,-0.12686349020754165,0.1844489915229465
1742916224.985026,1.004914,0.017446,0.037698,-0.052500000000000005,0.12250000000000001,0.49000000000000005,-0.6080093539900614,-0.12686349020754165,0.1844489915229465
1742916224.989892,1.002352,0.015616,0.03538,-0.07,0.28,0.56,-0.6080093539900614,-0.12686349020754165,0.1844489915229465
1742916224.9947588,1.003572,0.017202,0.039284,-0.0175,0.31500000000000006,0.5075000000000001,-0.6080093539900614,-0.12686349020754165,0.1844489915229465
1742916224.9996285,1.005646,0.014518,0.036234,-0.07,0.31500000000000006,0.56,-0.6080093539900614,-0.12686349020754165,0.1844489915229465
1742916225.0044959,1.002962,0.012688,0.0366,-0.07,0.29750000000000004,0.5425000000000001,-0.6080093539900614,-0.12686349020754165,0.1844489915229465
1742916225.0093634,1.003938,0.015372,0.038186,-0.052500000000000005,0.10500000000000001,0.35000000000000003,-0.5951476176556563,-0.12627886582870507,0.18941829874305757
1742916225.0142293,1.00345,0.015372,0.039772,-0.07,0.3325,0.7000000000000001,-0.5951476176556563,-0.12627886582870507,0.18941829874305757
1742916225.0190966,1.003084,0.013663999999999999,0.038551999999999996,-0.08750000000000001,0.29750000000000004,0.5775,-0.5951476176556563,-0.12627886582870507,0.18941829874305757
1742916225.0239682,1.001742,0.01342,0.037942,-0.08750000000000001,0.24500000000000002,0.5075000000000001,-0.5951476176556563,-0.12627886582870507,0.18941829874305757
1742916225.0295389,1.000278,0.010735999999999999,0.037942,-0.07,0.1925,0.5075000000000001,-0.5951476176556563,-0.12627886582870507,0.18941829874305757
1742916225.033703,1.00467,0.011101999999999999,0.038796,-0.0175,0.2625,0.6125,-0.5951476176556563,-0.12627886582870507,0.18941829874305757
1742916225.0385458,1.00528,0.011712,0.038674,-0.035,0.17500000000000002,0.43750000000000006,-0.5951476176556563,-0.12627886582870507,0.18941829874305757
1742916225.0434134,1.002108,0.014518,0.038551999999999996,-0.052500000000000005,0.17500000000000002,0.525,-0.5951476176556563,-0.12627886582870507,0.18941829874305757
1742916225.0482802,1.003938,0.012078,0.036356,0.0175,0.15750000000000003,0.5775,-0.5951476176556563,-0.12627886582870507,0.18941829874305757
1742916225.0531533,1.00101,0.010735999999999999,0.03599,-0.035,0.15750000000000003,0.6300000000000001,-0.6045016077170418,-0.12920198772288805,0.1885413621748027
1742916225.058018,1.004548,0.012444,0.03782,-0.07,0.052500000000000005,0.42000000000000004,-0.6045016077170418,-0.12920198772288805,0.1885413621748027
1742916225.062884,1.003938,0.013176,0.034892,-0.08750000000000001,0.14,0.6125,-0.6045016077170418,-0.12920198772288805,0.1885413621748027
1742916225.067756,1.001132,0.014029999999999999,0.03477,-0.12250000000000001,0.22750000000000004,0.5425000000000001,-0.6045016077170418,-0.12920198772288805,0.1885413621748027
1742916225.0726237,1.004792,0.015738,0.03599,-0.10500000000000001,0.15750000000000003,0.5425000000000001,-0.6045016077170418,-0.12920198772288805,0.1885413621748027
1742916225.0774937,1.003816,0.01647,0.036722,-0.08750000000000001,0.24500000000000002,0.525,-0.6045016077170418,-0.12920198772288805,0.1885413621748027
1742916225.0830774,0.9995459999999999,0.015982,0.034892,-0.035,0.28,0.56,-0.6045016077170418,-0.12920198772288805,0.1885413621748027
1742916225.087224,0.9995459999999999,0.015982,0.034892,-0.15750000000000003,0.17500000000000002,0.49000000000000005,-0.6045016077170418,-0.12920198772288805,0.1885413621748027
1742916225.0920923,1.005402,0.0183,0.038186,-0.15750000000000003,0.17500000000000002,0.5425000000000001,-0.6045016077170418,-0.12920198772288805,0.1885413621748027
1742916225.096962,1.006988,0.0183,0.037942,-0.15750000000000003,0.24500000000000002,0.5775,-0.6045016077170418,-0.12920198772288805,0.1885413621748027
1742916225.1018288,1.005402,0.0183,0.037454,-0.15750000000000003,0.17500000000000002,0.35000000000000003,-0.6132709733995908,-0.12160187079801228,0.185910552470038
1742916225.1066961,1.003938,0.016592,0.035623999999999996,-0.15750000000000003,0.24500000000000002,0.6475000000000001,-0.6132709733995908,-0.12160187079801228,0.185910552470038
1742916225.1115613,1.004304,0.017446,0.040382,-0.15750000000000003,0.36750000000000005,0.6300000000000001,-0.6132709733995908,-0.12160187079801228,0.185910552470038
1742916225.116431,1.00284,0.016592,0.041114,-0.14,0.29750000000000004,0.5775,-0.6132709733995908,-0.12160187079801228,0.185910552470038
1742916225.1212988,1.004304,0.01647,0.03599,-0.12250000000000001,0.2625,0.5425000000000001,-0.6132709733995908,-0.12160187079801228,0.185910552470038
1742916225.1261644,1.002352,0.015738,0.03965,-0.12250000000000001,0.28,0.525,-0.6132709733995908,-0.12160187079801228,0.185910552470038
1742916225.1310368,1.002718,0.014884,0.04026,-0.14,0.1925,0.525,-0.6132709733995908,-0.12160187079801228,0.185910552470038
1742916225.142683,1.00223,0.017446,0.040504,-0.12250000000000001,0.24500000000000002,0.5950000000000001,-0.6132709733995908,-0.12160187079801228,0.185910552470038
1742916225.1455638,1.003816,0.012688,0.036844,-0.052500000000000005,0.22750000000000004,0.5425000000000001,-0.6132709733995908,-0.12160187079801228,0.185910552470038
1742916225.1504292,1.004426,0.014518,0.036356,0.0,-0.035,0.35000000000000003,-0.599824612686349,-0.12569424144986846,0.18766442560654778
1742916225.1552944,1.002596,0.013297999999999999,0.03599,0.035,0.12250000000000001,0.665,-0.599824612686349,-0.12569424144986846,0.18766442560654778
1742916225.1601634,1.001864,0.012565999999999999,0.036356,-0.08750000000000001,0.14,0.6125,-0.599824612686349,-0.12569424144986846,0.18766442560654778
1742916225.1650312,1.002474,0.013176,0.036844,-0.08750000000000001,0.10500000000000001,0.5775,-0.599824612686349,-0.12569424144986846,0.18766442560654778
1742916225.1698985,1.005158,0.013176,0.039528,-0.035,0.08750000000000001,0.5775,-0.599824612686349,-0.12569424144986846,0.18766442560654778
1742916225.1747673,1.00345,0.012078,0.036356,-0.0175,0.12250000000000001,0.5075000000000001,-0.599824612686349,-0.12569424144986846,0.18766442560654778
1742916225.1796334,1.001498,0.00976,0.03477,-0.052500000000000005,0.14,0.56,-0.599824612686349,-0.12569424144986846,0.18766442560654778
1742916225.1845033,1.006256,0.013176,0.037942,0.0,0.17500000000000002,0.5425000000000001,-0.599824612686349,-0.12569424144986846,0.18766442560654778
1742916225.189371,1.006134,0.013542,0.037576,-0.052500000000000005,0.24500000000000002,0.56,-0.599824612686349,-0.12569424144986846,0.18766442560654778
1742916225.1971998,1.003816,0.013054,0.034282,-0.08750000000000001,0.10500000000000001,0.4025,-0.5986553639286758,-0.12160187079801228,0.18123355743934522
1742916225.200057,1.00284,0.014029999999999999,0.036844,-0.035,0.35000000000000003,0.6475000000000001,-0.5986553639286758,-0.12160187079801228,0.18123355743934522
1742916225.2049248,1.003938,0.013786,0.034159999999999996,-0.035,0.24500000000000002,0.49000000000000005,-0.5986553639286758,-0.12160187079801228,0.18123355743934522
1742916225.2097921,1.00345,0.015616,0.037454,0.12250000000000001,0.28,0.56,-0.5986553639286758,-0.12160187079801228,0.18123355743934522
1742916225.214659,1.005524,0.016347999999999998,0.037576,0.052500000000000005,0.24500000000000002,0.525,-0.5986553639286758,-0.12160187079801228,0.18123355743934522
1742916225.219595,1.004792,0.015982,0.037454,0.0,0.28,0.5075000000000001,-0.5986553639286758,-0.12160187079801228,0.18123355743934522
1742916225.2245376,1.004548,0.01586,0.03965,0.0175,0.17500000000000002,0.47250000000000003,-0.5986553639286758,-0.12160187079801228,0.18123355743934522
1742916225.2292976,1.000644,0.015493999999999999,0.038308,0.0175,0.15750000000000003,0.49000000000000005,-0.5986553639286758,-0.12160187079801228,0.18123355743934522
1742916225.234161,1.002718,0.017446,0.03904,-0.052500000000000005,0.22750000000000004,0.5775,-0.5986553639286758,-0.12160187079801228,0.18123355743934522
1742916225.2390256,1.003084,0.017079999999999998,0.037454,-0.0175,0.17500000000000002,0.5425000000000001,-0.5986553639286758,-0.12160187079801228,0.18123355743934522
1742916225.2438943,1.00345,0.017934,0.038918,-0.07,0.0175,0.4025,-0.5963168664133295,-0.13387898275358082,0.19263373282665888
1742916225.2511573,1.001986,0.01769,0.037698,-0.10500000000000001,0.29750000000000004,0.7000000000000001,-0.5963168664133295,-0.13387898275358082,0.19263373282665888
1742916225.2540104,1.004426,0.018178,0.037698,-0.10500000000000001,0.29750000000000004,0.7000000000000001,-0.5963168664133295,-0.13387898275358082,0.19263373282665888
1742916225.2588806,1.004426,0.017446,0.03843,-0.07,0.14,0.5775,-0.5963168664133295,-0.13387898275358082,0.19263373282665888
1742916225.263745,1.004182,0.015738,0.036966,-0.10500000000000001,0.12250000000000001,0.5950000000000001,-0.5963168664133295,-0.13387898275358082,0.19263373282665888
1742916225.2686121,1.00406,0.01586,0.037942,-0.052500000000000005,0.17500000000000002,0.5950000000000001,-0.5963168664133295,-0.13387898275358082,0.19263373282665888
1742916225.27348,1.006378,0.016104,0.035868,0.0,0.15750000000000003,0.56,-0.5963168664133295,-0.13387898275358082,0.19263373282665888
1742916225.2783468,1.00528,0.014761999999999999,0.03538,-0.0175,0.12250000000000001,0.5425000000000001,-0.5963168664133295,-0.13387898275358082,0.19263373282665888
1742916225.2832186,1.002962,0.01342,0.035623999999999996,-0.0175,0.24500000000000002,0.5950000000000001,-0.5963168664133295,-0.13387898275358082,0.19263373282665888
1742916225.288085,1.00406,0.014395999999999999,0.036234,-0.035,0.12250000000000001,0.42000000000000004,-0.6021631102016954,-0.12335574393452207,0.1867874890382929
1742916225.2929513,1.005646,0.011467999999999999,0.035136,0.0175,0.15750000000000003,0.5775,-0.6021631102016954,-0.12335574393452207,0.1867874890382929
1742916225.2978203,1.004426,0.012688,0.033184,-0.035,0.3325,0.5775,-0.6021631102016954,-0.12335574393452207,0.1867874890382929
1742916225.3042653,1.005158,0.012931999999999999,0.039528,-0.0175,0.2625,0.5425000000000001,-0.6021631102016954,-0.12335574393452207,0.1867874890382929
1742916225.3075564,1.002352,0.01159,0.034282,-0.08750000000000001,0.29750000000000004,0.49000000000000005,-0.6021631102016954,-0.12335574393452207,0.1867874890382929
1742916225.312434,1.003084,0.010492,0.035013999999999997,-0.08750000000000001,0.22750000000000004,0.5775,-0.6021631102016954,-0.12335574393452207,0.1867874890382929
1742916225.3173006,1.002108,0.012078,0.036844,-0.08750000000000001,0.2625,0.5425000000000001,-0.6021631102016954,-0.12335574393452207,0.1867874890382929
1742916225.3221653,1.002352,0.01464,0.03721,-0.052500000000000005,0.28,0.49000000000000005,-0.6021631102016954,-0.12335574393452207,0.1867874890382929
1742916225.3270333,1.00101,0.012444,0.03904,-0.035,0.3325,0.5075000000000001,-0.6021631102016954,-0.12335574393452207,0.1867874890382929
1742916225.3319113,1.003694,0.015372,0.038064,-0.0175,0.28,0.5950000000000001,-0.6021631102016954,-0.12335574393452207,0.1867874890382929
1742916225.3367834,1.001132,0.01159,0.039162,-0.0175,0.15750000000000003,0.43750000000000006,-0.5980707395498392,-0.12569424144986846,0.18941829874305757
1742916225.3416398,1.00101,0.013176,0.037942,0.0175,0.08750000000000001,0.525,-0.5980707395498392,-0.12569424144986846,0.18941829874305757
1742916225.3465068,1.004182,0.016592,0.039284,-0.0175,0.28,0.6125,-0.5980707395498392,-0.12569424144986846,0.18941829874305757
1742916225.351376,1.001986,0.01647,0.035868,-0.035,0.21000000000000002,0.5775,-0.5980707395498392,-0.12569424144986846,0.18941829874305757
1742916225.3573425,1.002474,0.015982,0.038186,0.0175,0.1925,0.5425000000000001,-0.5980707395498392,-0.12569424144986846,0.18941829874305757
1742916225.3611124,1.002352,0.016104,0.037942,-0.0175,0.17500000000000002,0.5775,-0.5980707395498392,-0.12569424144986846,0.18941829874305757
1742916225.3659823,1.00467,0.01769,0.03904,0.0,0.052500000000000005,0.45500000000000007,-0.5980707395498392,-0.12569424144986846,0.18941829874305757
1742916225.370851,1.003938,0.01647,0.035868,0.0175,0.10500000000000001,0.5775,-0.5980707395498392,-0.12569424144986846,0.18941829874305757
1742916225.3757157,1.003084,0.01647,0.038186,-0.07,0.12250000000000001,0.56,-0.5980707395498392,-0.12569424144986846,0.18941829874305757
1742916225.3805923,1.003328,0.018056,0.034526,0.0,0.08750000000000001,0.5425000000000001,-0.5980707395498392,-0.12569424144986846,0.18941829874305757
1742916225.3854508,1.00406,0.016104,0.03477,0.10500000000000001,0.14,0.5075000000000001,-0.5974861151710026,-0.12043262204033908,0.19438760596316867
1742916225.390324,1.004182,0.017202,0.032695999999999996,-0.0175,0.07,0.5075000000000001,-0.5974861151710026,-0.12043262204033908,0.19438760596316867
1742916225.3951888,1.005402,0.01647,0.038796,0.08750000000000001,0.28,0.5775,-0.5974861151710026,-0.12043262204033908,0.19438760596316867
1742916225.400058,1.00406,0.014884,0.033794,0.0,0.22750000000000004,0.5075000000000001,-0.5974861151710026,-0.12043262204033908,0.19438760596316867
1742916225.4049299,1.002962,0.015738,0.03599,0.052500000000000005,0.22750000000000004,0.49000000000000005,-0.5974861151710026,-0.12043262204033908,0.19438760596316867
1742916225.410501,1.005402,0.015738,0.038186,-0.052500000000000005,0.2625,0.5775,-0.5974861151710026,-0.12043262204033908,0.19438760596316867
1742916225.4146645,1.005402,0.015738,0.033549999999999996,-0.12250000000000001,0.2625,0.5775,-0.5974861151710026,-0.12043262204033908,0.19438760596316867
1742916225.4195302,1.002596,0.014029999999999999,0.039528,-0.052500000000000005,0.1925,0.5075000000000001,-0.5974861151710026,-0.12043262204033908,0.19438760596316867
1742916225.4244,1.004182,0.012565999999999999,0.037332,0.10500000000000001,0.2625,0.56,-0.5974861151710026,-0.12043262204033908,0.19438760596316867
1742916225.4292676,1.003084,0.013176,0.036844,0.035,0.17500000000000002,0.47250000000000003,-0.5939783688979831,-0.12744811458637825,0.1847413037123648
1742916225.4341347,1.002108,0.011467999999999999,0.037087999999999996,-0.0175,0.14,0.45500000000000007,-0.5939783688979831,-0.12744811458637825,0.1847413037123648
1742916225.439003,1.002352,0.01281,0.041602,0.0,0.3325,0.5950000000000001,-0.5939783688979831,-0.12744811458637825,0.1847413037123648
1742916225.443868,1.004914,0.011712,0.03904,0.0,0.24500000000000002,0.5425000000000001,-0.5939783688979831,-0.12744811458637825,0.1847413037123648
1742916225.4487398,1.004548,0.012688,0.037942,-0.035,0.17500000000000002,0.56,-0.5939783688979831,-0.12744811458637825,0.1847413037123648
1742916225.453606,1.001864,0.011224,0.036844,0.052500000000000005,0.15750000000000003,0.56,-0.5939783688979831,-0.12744811458637825,0.1847413037123648
1742916225.4584768,1.003938,0.012078,0.038308,0.0,0.1925,0.49000000000000005,-0.5939783688979831,-0.12744811458637825,0.1847413037123648
1742916225.464047,1.005402,0.013786,0.037454,0.052500000000000005,0.15750000000000003,0.525,-0.5939783688979831,-0.12744811458637825,0.1847413037123648
1742916225.4682112,1.003206,0.014884,0.03721,-0.0175,0.15750000000000003,0.56,-0.5939783688979831,-0.12744811458637825,0.1847413037123648
1742916225.4730794,1.005036,0.013663999999999999,0.0366,-0.052500000000000005,0.10500000000000001,0.56,-0.5939783688979831,-0.12744811458637825,0.1847413037123648
1742916225.477948,1.004182,0.01586,0.036844,-0.0175,0.14,0.525,-0.6039169833382052,-0.12627886582870507,0.1844489915229465
1742916225.4828115,1.003694,0.01464,0.03721,0.052500000000000005,0.0,0.42000000000000004,-0.6039169833382052,-0.12627886582870507,0.1844489915229465
1742916225.4876797,1.002718,0.01647,0.036722,0.08750000000000001,0.21000000000000002,0.6125,-0.6039169833382052,-0.12627886582870507,0.1844489915229465
1742916225.4925492,1.003938,0.015616,0.036722,0.08750000000000001,0.21000000000000002,0.525,-0.6039169833382052,-0.12627886582870507,0.1844489915229465
1742916225.4974155,1.004304,0.017079999999999998,0.03294,0.052500000000000005,0.1925,0.5425000000000001,-0.6039169833382052,-0.12627886582870507,0.1844489915229465
1742916225.5022821,1.004182,0.0183,0.035868,0.08750000000000001,0.1925,0.49000000000000005,-0.6039169833382052,-0.12627886582870507,0.1844489915229465
1742916225.5071485,1.004792,0.017568,0.036112,0.12250000000000001,0.14,0.5075000000000001,-0.6039169833382052,-0.12627886582870507,0.1844489915229465
1742916225.5120242,1.001498,0.018178,0.038551999999999996,0.0175,0.22750000000000004,0.56,-0.6039169833382052,-0.12627886582870507,0.1844489915229465
1742916225.5175915,1.003084,0.017934,0.039528,0.0175,0.22750000000000004,0.5425000000000001,-0.6039169833382052,-0.12627886582870507,0.1844489915229465
1742916225.5217538,1.004426,0.017811999999999998,0.039528,-0.08750000000000001,0.22750000000000004,0.42000000000000004,-0.6039169833382052,-0.12627886582870507,0.1844489915229465
1742916225.5266228,1.001864,0.016104,0.0366,0.035,0.12250000000000001,0.47250000000000003,-0.6009938614440222,-0.12277111955568547,0.1862028646594563
1742916225.5314898,1.002718,0.016226,0.03721,0.052500000000000005,0.35000000000000003,0.7175,-0.6009938614440222,-0.12277111955568547,0.1862028646594563
1742916225.5363574,1.003084,0.017811999999999998,0.039162,-0.052500000000000005,0.24500000000000002,0.5775,-0.6009938614440222,-0.12277111955568547,0.1862028646594563
1742916225.541226,1.00223,0.01586,0.03721,-0.08750000000000001,0.29750000000000004,0.5775,-0.6009938614440222,-0.12277111955568547,0.1862028646594563
1742916225.5460918,1.003694,0.01281,0.03904,-0.12250000000000001,0.1925,0.5775,-0.6009938614440222,-0.12277111955568547,0.1862028646594563
1742916225.5509572,1.00345,0.011224,0.034648,-0.07,0.14,0.56,-0.6009938614440222,-0.12277111955568547,0.1862028646594563
1742916225.5558293,1.001986,0.01525,0.03843,-0.07,0.10500000000000001,0.525,-0.6009938614440222,-0.12277111955568547,0.1862028646594563
1742916225.5606966,1.00467,0.013542,0.038551999999999996,-0.10500000000000001,0.14,0.5775,-0.6009938614440222,-0.12277111955568547,0.1862028646594563
1742916225.5655665,1.001132,0.011224,0.034892,-0.14,0.08750000000000001,0.5425000000000001,-0.6009938614440222,-0.12277111955568547,0.1862028646594563
1742916225.571134,1.002474,0.013542,0.037087999999999996,-0.10500000000000001,0.12250000000000001,0.5075000000000001,-0.5992399883075125,-0.11926337328266588,0.1853259280912014
1742916225.575299,1.004548,0.00976,0.035868,0.0,-0.0175,0.45500000000000007,-0.5992399883075125,-0.11926337328266588,0.1853259280912014
1742916225.580166,1.004426,0.013297999999999999,0.03904,0.12250000000000001,0.1925,0.7000000000000001,-0.5992399883075125,-0.11926337328266588,0.1853259280912014
1742916225.5850346,1.004548,0.012688,0.035136,-0.12250000000000001,0.10500000000000001,0.5425000000000001,-0.5992399883075125,-0.11926337328266588,0.1853259280912014
1742916225.5899043,1.00223,0.012078,0.034038,-0.15750000000000003,0.21000000000000002,0.5425000000000001,-0.5992399883075125,-0.11926337328266588,0.1853259280912014
1742916225.5947804,1.005524,0.013663999999999999,0.036112,-0.14,0.1925,0.56,-0.5992399883075125,-0.11926337328266588,0.1853259280912014
1742916225.5996447,1.004304,0.014395999999999999,0.035502,-0.10500000000000001,0.17500000000000002,0.5425000000000001,-0.5992399883075125,-0.11926337328266588,0.1853259280912014
1742916225.6045108,1.00528,0.012931999999999999,0.0366,-0.08750000000000001,0.24500000000000002,0.5425000000000001,-0.5992399883075125,-0.11926337328266588,0.1853259280912014
1742916225.609378,1.00467,0.014395999999999999,0.037332,-0.15750000000000003,0.1925,0.5425000000000001,-0.5992399883075125,-0.11926337328266588,0.1853259280912014
1742916225.6142497,1.003938,0.016226,0.03721,-0.14,0.24500000000000002,0.525,-0.5992399883075125,-0.11926337328266588,0.1853259280912014
1742916225.619118,1.004914,0.014518,0.037942,-0.15750000000000003,0.24500000000000002,0.5075000000000001,-0.6021631102016954,-0.12335574393452207,0.1826951183864367
1742916225.6247072,1.004304,0.016958,0.036478,-0.10500000000000001,0.47250000000000003,0.7000000000000001,-0.6021631102016954,-0.12335574393452207,0.1826951183864367
1742916225.6288621,1.004304,0.015982,0.039894,-0.10500000000000001,0.47250000000000003,0.5425000000000001,-0.6021631102016954,-0.12335574393452207,0.1826951183864367
1742916225.633725,1.00467,0.01647,0.039772,-0.10500000000000001,0.24500000000000002,0.525,-0.6021631102016954,-0.12335574393452207,0.1826951183864367
1742916225.6385536,1.006378,0.018422,0.038674,-0.14,0.29750000000000004,0.56,-0.6021631102016954,-0.12335574393452207,0.1826951183864367
1742916225.6434233,1.001376,0.017811999999999998,0.036112,-0.0175,0.29750000000000004,0.5425000000000001,-0.6021631102016954,-0.12335574393452207,0.1826951183864367
1742916225.6482873,1.003572,0.01525,0.039406,0.035,0.22750000000000004,0.5075000000000001,-0.6021631102016954,-0.12335574393452207,0.1826951183864367
1742916225.6531563,1.003206,0.017324,0.039772,-0.0175,0.1925,0.5075000000000001,-0.6021631102016954,-0.12335574393452207,0.1826951183864367
1742916225.6580257,1.00284,0.016592,0.039772,-0.0175,0.15750000000000003,0.56,-0.6021631102016954,-0.12335574393452207,0.1826951183864367
1742916225.6629064,1.004548,0.017568,0.03721,-0.0175,0.14,0.5075000000000001,-0.6021631102016954,-0.12335574393452207,0.1826951183864367
1742916225.6677668,1.002718,0.017811999999999998,0.036112,0.052500000000000005,-0.052500000000000005,0.36750000000000005,-0.5992399883075125,-0.12043262204033908,0.18357205495469162
1742916225.672639,1.003694,0.016104,0.0366,-0.0175,0.14,0.6825000000000001,-0.5992399883075125,-0.12043262204033908,0.18357205495469162
1742916225.678208,1.004426,0.016592,0.038918,0.052500000000000005,0.08750000000000001,0.525,-0.5992399883075125,-0.12043262204033908,0.18357205495469162
1742916225.6823695,1.003084,0.015493999999999999,0.035502,-0.08750000000000001,0.15750000000000003,0.5425000000000001,-0.5992399883075125,-0.12043262204033908,0.18357205495469162
1742916225.6872342,1.001864,0.014029999999999999,0.036356,0.035,0.10500000000000001,0.525,-0.5992399883075125,-0.12043262204033908,0.18357205495469162
1742916225.6921027,1.003572,0.013542,0.035868,0.035,0.14,0.5075000000000001,-0.5992399883075125,-0.12043262204033908,0.18357205495469162
1742916225.6969697,1.006622,0.015006,0.036234,-0.08750000000000001,0.14,0.5425000000000001,-0.5992399883075125,-0.12043262204033908,0.18357205495469162
1742916225.701837,1.005646,0.01586,0.038674,-0.10500000000000001,0.08750000000000001,0.5425000000000001,-0.5992399883075125,-0.12043262204033908,0.18357205495469162
1742916225.706705,1.00528,0.012444,0.036966,-0.035,0.17500000000000002,0.5425000000000001,-0.5992399883075125,-0.12043262204033908,0.18357205495469162
1742916225.7115707,1.00162,0.013054,0.033306,-0.07,0.17500000000000002,0.5425000000000001,-0.6097632271265712,-0.1180941245249927,0.18971061093247588
1742916225.7164423,1.003816,0.012444,0.035258,-0.1925,0.052500000000000005,0.36750000000000005,-0.6097632271265712,-0.1180941245249927,0.18971061093247588
1742916225.721309,1.00467,0.01281,0.034648,-0.28,0.29750000000000004,0.6475000000000001,-0.6097632271265712,-0.1180941245249927,0.18971061093247588
1742916225.726178,1.003206,0.014029999999999999,0.036722,-0.21000000000000002,0.24500000000000002,0.49000000000000005,-0.6097632271265712,-0.1180941245249927,0.18971061093247588
1742916225.7317448,1.00223,0.013176,0.0366,-0.15750000000000003,0.36750000000000005,0.6125,-0.6097632271265712,-0.1180941245249927,0.18971061093247588
1742916225.7359233,1.003694,0.015493999999999999,0.035258,-0.17500000000000002,0.36750000000000005,0.6125,-0.6097632271265712,-0.1180941245249927,0.18971061093247588
1742916225.740789,1.003206,0.013176,0.03904,0.08750000000000001,0.21000000000000002,0.47250000000000003,-0.6097632271265712,-0.1180941245249927,0.18971061093247588
1742916225.7456589,1.002474,0.01464,0.037087999999999996,-0.12250000000000001,0.29750000000000004,0.525,-0.6097632271265712,-0.1180941245249927,0.18971061093247588
1742916225.750514,1.002596,0.014029999999999999,0.040138,-0.08750000000000001,0.21000000000000002,0.5425000000000001,-0.6097632271265712,-0.1180941245249927,0.18971061093247588
1742916225.7553797,1.003572,0.014518,0.037454,-0.17500000000000002,0.22750000000000004,0.525,-0.6097632271265712,-0.1180941245249927,0.18971061093247588
1742916225.760248,1.003328,0.016104,0.039528,-0.10500000000000001,0.035,0.385,-0.6097632271265712,-0.12277111955568547,0.1832797427652733
1742916225.7651162,1.003572,0.01342,0.04026,-0.052500000000000005,0.22750000000000004,0.7350000000000001,-0.6097632271265712,-0.12277111955568547,0.1832797427652733
1742916225.7699816,1.001986,0.017079999999999998,0.037942,-0.052500000000000005,0.1925,0.6125,-0.6097632271265712,-0.12277111955568547,0.1832797427652733
1742916225.7748487,1.002108,0.017568,0.035502,0.0,0.15750000000000003,0.49000000000000005,-0.6097632271265712,-0.12277111955568547,0.1832797427652733
1742916225.7797203,1.00589,0.015982,0.035746,-0.0175,0.10500000000000001,0.49000000000000005,-0.6097632271265712,-0.12277111955568547,0.1832797427652733
1742916225.785288,1.003816,0.016958,0.038308,-0.052500000000000005,0.14,0.5950000000000001,-0.6097632271265712,-0.12277111955568547,0.1832797427652733
1742916225.7894518,1.003572,0.017446,0.037332,0.0,0.14,0.5950000000000001,-0.6097632271265712,-0.12277111955568547,0.1832797427652733
1742916225.7943187,1.004792,0.01891,0.036112,0.0,0.10500000000000001,0.5075000000000001,-0.6097632271265712,-0.12277111955568547,0.1832797427652733
1742916225.7991855,1.004548,0.01586,0.03477,0.0,0.12250000000000001,0.5075000000000001,-0.6097632271265712,-0.12277111955568547,0.1832797427652733
1742916225.8040535,1.000278,0.01647,0.034526,0.035,0.17500000000000002,0.5950000000000001,-0.6097632271265712,-0.12277111955568547,0.1832797427652733
1742916225.8089213,1.003572,0.016226,0.03843,0.0175,0.12250000000000001,0.42000000000000004,-0.6009938614440222,-0.12569424144986846,0.19204910844782228
1742916225.8137887,1.007476,0.01525,0.03599,0.0,0.21000000000000002,0.6825000000000001,-0.6009938614440222,-0.12569424144986846,0.19204910844782228
1742916225.8186548,1.003816,0.014029999999999999,0.033062,0.035,0.28,0.5775,-0.6009938614440222,-0.12569424144986846,0.19204910844782228
1742916225.8235223,1.003816,0.01342,0.036966,0.0175,0.2625,0.5425000000000001,-0.6009938614440222,-0.12569424144986846,0.19204910844782228
1742916225.8283892,1.003084,0.012322,0.036356,0.0175,0.22750000000000004,0.5425000000000001,-0.6009938614440222,-0.12569424144986846,0.19204910844782228
1742916225.8332605,1.004548,0.013297999999999999,0.038551999999999996,0.08750000000000001,0.21000000000000002,0.56,-0.6009938614440222,-0.12569424144986846,0.19204910844782228
1742916225.8388283,1.003084,0.014152,0.03782,0.10500000000000001,0.2625,0.5425000000000001,-0.6009938614440222,-0.12569424144986846,0.19204910844782228
1742916225.8429902,1.001986,0.014152,0.039406,0.035,0.31500000000000006,0.6125,-0.6009938614440222,-0.12569424144986846,0.19204910844782228
1742916225.8478587,1.00101,0.011833999999999999,0.03782,-0.08750000000000001,0.22750000000000004,0.49000000000000005,-0.6009938614440222,-0.12569424144986846,0.19204910844782228
1742916225.8527267,1.003328,0.012688,0.038186,0.07,0.24500000000000002,0.5775,-0.6039169833382052,-0.12160187079801228,0.1891259865536393
1742916225.8575997,1.001986,0.013297999999999999,0.038918,0.08750000000000001,0.10500000000000001,0.36750000000000005,-0.6039169833382052,-0.12160187079801228,0.1891259865536393
1742916225.8624656,1.003084,0.014518,0.036478,-0.0175,0.14,0.5950000000000001,-0.6039169833382052,-0.12160187079801228,0.1891259865536393
1742916225.86733,1.00284,0.011346,0.038308,0.052500000000000005,0.1925,0.5425000000000001,-0.6039169833382052,-0.12160187079801228,0.1891259865536393
1742916225.872198,1.004914,0.014395999999999999,0.03599,0.07,0.14,0.5425000000000001,-0.6039169833382052,-0.12160187079801228,0.1891259865536393
1742916225.8770666,1.001864,0.014152,0.03782,0.0175,0.12250000000000001,0.525,-0.6039169833382052,-0.12160187079801228,0.1891259865536393
1742916225.8819335,1.003816,0.016592,0.037576,0.035,0.10500000000000001,0.5425000000000001,-0.6039169833382052,-0.12160187079801228,0.1891259865536393
1742916225.8868177,1.003694,0.015616,0.037454,0.0175,0.08750000000000001,0.5425000000000001,-0.6039169833382052,-0.12160187079801228,0.1891259865536393
1742916225.892386,1.005402,0.017811999999999998,0.03843,0.07,0.12250000000000001,0.5775,-0.6039169833382052,-0.12160187079801228,0.1891259865536393
1742916225.8965404,1.004548,0.016347999999999998,0.03904,-0.12250000000000001,0.1925,0.56,-0.6039169833382052,-0.12160187079801228,0.1891259865536393
1742916225.901407,1.002962,0.014395999999999999,0.038186,0.052500000000000005,0.08750000000000001,0.385,-0.6126863490207541,-0.12335574393452207,0.1882490499853844
1742916225.9062724,1.00345,0.016347999999999998,0.035502,0.0175,0.14,0.6125,-0.6126863490207541,-0.12335574393452207,0.1882490499853844
1742916225.9111404,1.004304,0.017324,0.037698,0.0,0.21000000000000002,0.5775,-0.6126863490207541,-0.12335574393452207,0.1882490499853844
1742916225.916011,1.00589,0.017568,0.038186,-0.035,0.17500000000000002,0.5775,-0.6126863490207541,-0.12335574393452207,0.1882490499853844
1742916225.9208767,1.001986,0.016958,0.035258,-0.08750000000000001,0.1925,0.525,-0.6126863490207541,-0.12335574393452207,0.1882490499853844
1742916225.9257436,1.00406,0.013663999999999999,0.031842,-0.07,0.22750000000000004,0.5425000000000001,-0.6126863490207541,-0.12335574393452207,0.1882490499853844
1742916225.930611,1.004426,0.016226,0.038551999999999996,-0.07,0.22750000000000004,0.5775,-0.6126863490207541,-0.12335574393452207,0.1882490499853844
1742916225.9354784,1.005524,0.01769,0.039772,-0.10500000000000001,0.1925,0.56,-0.6126863490207541,-0.12335574393452207,0.1882490499853844
1742916225.940349,1.003206,0.016958,0.036112,-0.035,0.21000000000000002,0.5775,-0.6126863490207541,-0.12335574393452207,0.1882490499853844
1742916225.9459174,1.001254,0.013663999999999999,0.0366,-0.07,0.29750000000000004,0.5950000000000001,-0.6126863490207541,-0.12335574393452207,0.1867874890382929
1742916225.9500823,1.002474,0.013542,0.035868,-0.12250000000000001,0.17500000000000002,0.45500000000000007,-0.6009938614440222,-0.12335574393452207,0.1867874890382929
1742916225.9549482,1.004304,0.015493999999999999,0.037454,0.0,0.12250000000000001,0.5775,-0.6009938614440222,-0.12335574393452207,0.1867874890382929
1742916225.9598167,1.002962,0.014152,0.039284,-0.07,0.28,0.665,-0.6009938614440222,-0.12335574393452207,0.1867874890382929
1742916225.9646842,1.003084,0.013663999999999999,0.035623999999999996,-0.035,0.15750000000000003,0.5425000000000001,-0.6009938614440222,-0.12335574393452207,0.1867874890382929
1742916225.9695513,1.00284,0.011956,0.038551999999999996,-0.08750000000000001,0.15750000000000003,0.5425000000000001,-0.6009938614440222,-0.12335574393452207,0.1867874890382929
1742916225.9744203,1.00284,0.01464,0.036112,-0.15750000000000003,0.21000000000000002,0.5425000000000001,-0.6009938614440222,-0.12335574393452207,0.1867874890382929
1742916225.9792848,1.004182,0.013176,0.041358,-0.17500000000000002,0.21000000000000002,0.525,-0.6009938614440222,-0.12335574393452207,0.1867874890382929
1742916225.9841535,1.005646,0.013542,0.036112,-0.14,0.14,0.5075000000000001,-0.6009938614440222,-0.12335574393452207,0.1867874890382929
1742916225.9890215,1.004426,0.014884,0.038551999999999996,-0.14,0.17500000000000002,0.5775,-0.6009938614440222,-0.12335574393452207,0.1867874890382929
1742916225.9938908,1.003694,0.011956,0.033428,-0.08750000000000001,0.10500000000000001,0.45500000000000007,-0.6097632271265712,-0.12569424144986846,0.1853259280912014
1742916225.999477,1.002596,0.013176,0.038674,-0.14,0.12250000000000001,0.56,-0.6097632271265712,-0.12569424144986846,0.1853259280912014
1742916226.0036232,1.002596,0.013176,0.037698,-0.0175,0.28,0.5950000000000001,-0.6097632271265712,-0.12569424144986846,0.1853259280912014
1742916226.0084908,1.003816,0.014518,0.035136,-0.035,0.14,0.5425000000000001,-0.6097632271265712,-0.12569424144986846,0.1853259280912014
1742916226.0133579,1.00467,0.013297999999999999,0.034892,-0.052500000000000005,0.22750000000000004,0.5775,-0.6097632271265712,-0.12569424144986846,0.1853259280912014
1742916226.0182235,1.003694,0.01281,0.036356,-0.08750000000000001,0.1925,0.5425000000000001,-0.6097632271265712,-0.12569424144986846,0.1853259280912014
1742916226.023092,1.00345,0.015372,0.036844,-0.052500000000000005,0.24500000000000002,0.525,-0.6097632271265712,-0.12569424144986846,0.1853259280912014
1742916226.0279596,1.004182,0.017079999999999998,0.0366,-0.052500000000000005,0.22750000000000004,0.5075000000000001,-0.6097632271265712,-0.12569424144986846,0.1853259280912014
1742916226.032828,1.00284,0.016226,0.034404,-0.052500000000000005,0.24500000000000002,0.49000000000000005,-0.6097632271265712,-0.12569424144986846,0.1853259280912014
